"tester","testName","year","mth","day","hour","min","sec","partNo","partRef","age","gender","trialNo","trialType","trialVar","accu","dotPr","touchTime","respTime","trialTime","animShown","prpt.location","validity_basedonRT","reason.invalid","terminated.early.","reason.terminated","held.back.","override.software","Reason.overwritten","retain.RT.as..5000ms","respTime.1","median.time.inh.","med..Time.prpt","trialVar.1","accu.1","accu.prpt","accu.inh","coder","notes","med..time.inh.","Coder","med..Time.inh","median.prpt.time","median.inh.time","inh","prpt","coder.initials","accuracy.prpt","accuracy.inh","X","X.1","trialVariant","avgDotPressed","avgAccuracy","noOfResps","id"
"alexandra","24m2h",2024,6,15,14,49,3,2541,101,23,"female",1,"prr","",1,0,6123,6124,6124,"elephant4","left ",1,"none","none","none","none","none","none",0,6124,NA,NA,"",1,"","","AP",NA,NA,NA,NA,NA,NA,NA,NA,NA,NA,NA,NA,NA,NA,NA,NA,NA,"101"
"alexandra","24m2h",2024,6,15,14,49,17,2541,101,23,"female",1,"prr","",1,0,5135,5135,5135,"elephant2","",1,"","","","","","",0,5135,NA,NA,"",1,"","","",NA,NA,NA,NA,NA,NA,NA,NA,NA,NA,NA,NA,NA,NA,NA,NA,NA,"101"
"alexandra","24m2h",2024,6,15,14,49,28,2541,101,23,"female",1,"prr","",1,0,9134,9134,9134,"apple","",1,"","","","","","",0,9134,NA,NA,"",1,"","","",NA,NA,NA,NA,NA,NA,NA,NA,NA,NA,NA,NA,NA,NA,NA,NA,NA,"101"
"alexandra","24m2h",2024,6,15,14,49,42,2541,101,23,"female",1,"prr","",1,0,4181,22572,22572,"elephant","",1,"","","","","","",0,22572,NA,NA,"",1,"","","",NA,NA,NA,NA,NA,NA,NA,NA,NA,NA,NA,NA,NA,NA,NA,NA,NA,"101"
"alexandra","24m2h",2024,6,15,14,50,13,2541,101,23,"female",1,"prr","",1,0,11970,74971,74971,"flower","",1,"","","","","","",0,74971,NA,NA,"",1,"","","",NA,NA,NA,NA,NA,NA,NA,NA,NA,NA,NA,NA,NA,NA,NA,NA,NA,"101"
"alexandra","24m2h",2024,6,15,14,51,34,2541,101,23,"female",1,"prr","",1,0,39481,39481,39481,"elephant","",1,"","","","","","",0,39481,NA,NA,"",1,"","","",NA,NA,NA,NA,NA,NA,NA,NA,NA,NA,NA,NA,NA,NA,NA,NA,NA,"101"
"alexandra","24m2h",2024,6,15,14,52,27,2541,101,23,"female",1,"prr","",1,0,6591,6591,6591,"elephant2","",1,"","","","","","",0,6591,NA,NA,"",1,"","","",NA,NA,NA,NA,NA,NA,NA,NA,NA,NA,NA,NA,NA,NA,NA,NA,NA,"101"
"alexandra","24m2h",2024,6,15,14,52,40,2541,101,23,"female",1,"tpr","prpt",1,0,1581,1582,1582,"bus","",1,"","","","","","",1,1582,NA,1582,"prpt",1,"1","","",NA,NA,NA,NA,NA,NA,NA,NA,NA,NA,NA,NA,NA,NA,NA,NA,NA,"101"
"alexandra","24m2h",2024,6,15,14,52,46,2541,101,23,"female",2,"tpr","prpt",1,0,2327,2328,2328,"elephant2","",1,"","","","","","",1,2328,NA,2358,"prpt",1,"1","","",NA,NA,NA,NA,NA,NA,NA,NA,NA,NA,NA,NA,NA,NA,NA,NA,NA,"101"
"alexandra","24m2h",2024,6,15,14,52,52,2541,101,23,"female",3,"tpr","prpt",1,0,1791,1792,1792,"elephant4","",1,"","","","","","",1,1792,NA,1792,"prpt",1,"1","","",NA,NA,NA,NA,NA,NA,NA,NA,NA,NA,NA,NA,NA,NA,NA,NA,NA,"101"
"alexandra","24m2h",2024,6,15,14,52,58,2541,101,23,"female",4,"tpr","prpt",1,0,1373,1373,1373,"elephant","",1,"","","","","","",1,1373,NA,173,"prpt",1,"1","","",NA,NA,NA,NA,NA,NA,NA,NA,NA,NA,NA,NA,NA,NA,NA,NA,NA,"101"
"alexandra","24m2h",2024,6,15,14,53,4,2541,101,23,"female",5,"tpr","prpt",1,0,1688,1688,1688,"elephant2","",1,"","","","","","",1,1688,NA,1688,"prpt",1,"1","","",NA,NA,NA,NA,NA,NA,NA,NA,NA,NA,NA,NA,NA,NA,NA,NA,NA,"101"
"alexandra","24m2h",2024,6,15,14,53,10,2541,101,23,"female",6,"tpr","inhb",1,0,2974,2975,2975,"elephant4","",1,"","","","","","",1,2975,2975,NA,"inhb",1,"","1","",NA,NA,NA,NA,NA,NA,NA,NA,NA,NA,NA,NA,NA,NA,NA,NA,NA,"101"
"alexandra","24m2h",2024,6,15,14,53,17,2541,101,23,"female",7,"tpr","inhb",1,0,1513,1513,1513,"apple","",1,"","","","","","",1,1513,1513,NA,"inhb",1,"","1","",NA,NA,NA,NA,NA,NA,NA,NA,NA,NA,NA,NA,NA,NA,NA,NA,NA,"101"
"alexandra","24m2h",2024,6,15,14,53,23,2541,101,23,"female",8,"tpr","prpt",1,0,2839,2839,2839,"flower","",1,"","","","","","",1,2839,NA,2839,"prpt",1,"1","","",NA,NA,NA,NA,NA,NA,NA,NA,NA,NA,NA,NA,NA,NA,NA,NA,NA,"101"
"alexandra","24m2h",2024,6,15,14,53,30,2541,101,23,"female",9,"tpr","inhb",1,0,2959,2959,2959,"elephant4","",1,"","","","","","",1,2959,2959,NA,"inhb",1,"","1","",NA,NA,NA,NA,NA,NA,NA,NA,NA,NA,NA,NA,NA,NA,NA,NA,NA,"101"
"alexandra","24m2h",2024,6,15,14,53,37,2541,101,23,"female",10,"tpr","inhb",1,0,1245,1245,1245,"elephant2","",1,"","","","","","",1,1245,1245,NA,"inhb",1,"","1","",NA,NA,NA,NA,NA,NA,NA,NA,NA,NA,NA,NA,NA,NA,NA,NA,NA,"101"
"alexandra","24m2h",2024,6,15,14,53,42,2541,101,23,"female",11,"tpr","prpt",1,0,1795,1795,1795,"bus","",1,"","","","","","",1,1795,NA,1795,"prpt",1,"1","","",NA,NA,NA,NA,NA,NA,NA,NA,NA,NA,NA,NA,NA,NA,NA,NA,NA,"101"
"alexandra","24m2h",2024,6,15,14,53,48,2541,101,23,"female",12,"tpr","prpt",1,0,1363,1363,1363,"flower","",1,"","","","","","",1,1363,NA,1363,"prpt",1,"1","","",NA,NA,NA,NA,NA,NA,NA,NA,NA,NA,NA,NA,NA,NA,NA,NA,NA,"101"
"alexandra","24m2h",2024,6,15,14,53,54,2541,101,23,"female",13,"tpr","prpt",1,0,1658,1659,1659,"elephant2","",1,"","","","","","",1,1659,NA,1659,"prpt",1,"1","","",NA,NA,NA,NA,NA,NA,NA,NA,NA,NA,NA,NA,NA,NA,NA,NA,NA,"101"
"alexandra","24m2h",2024,6,15,14,54,0,2541,101,23,"female",14,"tpr","prpt",1,0,6101,6101,6101,"bus","",1,"","","","","","",0,6101,NA,NA,"prpt",1,"1","","",NA,NA,NA,NA,NA,NA,NA,NA,NA,NA,NA,NA,NA,NA,NA,NA,NA,"101"
"alexandra","24m2h",2024,6,15,14,54,10,2541,101,23,"female",15,"tpr","prpt",1,0,1334,1334,1334,"bus","",1,"","","","","","",1,1334,NA,1334,"prpt",1,"1","","",NA,NA,NA,NA,NA,NA,NA,NA,NA,NA,NA,NA,NA,NA,NA,NA,NA,"101"
"alexandra","24m2h",2024,6,15,14,54,15,2541,101,23,"female",16,"tpr","inhb",1,0,1638,1638,1638,"elephant4","",1,"","","","","","",1,1638,1638,NA,"inhb",1,"","1","",NA,NA,NA,NA,NA,NA,NA,NA,NA,NA,NA,NA,NA,NA,NA,NA,NA,"101"
"alexandra","24m2h",2024,6,15,14,54,21,2541,101,23,"female",17,"tpr","inhb",1,0,2020,2021,2021,"flower","",1,"","","","","","",1,2021,2021,NA,"inhb",1,"","1","",NA,NA,NA,NA,NA,NA,NA,NA,NA,NA,NA,NA,NA,NA,NA,NA,NA,"101"
"alexandra","24m2h",2024,6,15,14,54,27,2541,101,23,"female",18,"tpr","prpt",1,0,2373,2373,2373,"elephant2","",1,"","","","","","",1,2373,NA,2373,"prpt",1,"1","","",NA,NA,NA,NA,NA,NA,NA,NA,NA,NA,NA,NA,NA,NA,NA,NA,NA,"101"
"alexandra","24m2h",2024,6,15,14,54,34,2541,101,23,"female",19,"tpr","prpt",1,0,2190,2190,2190,"bus","",1,"","","","","","",1,2190,NA,2190,"prpt",1,"1","","",NA,NA,NA,NA,NA,NA,NA,NA,NA,NA,NA,NA,NA,NA,NA,NA,NA,"101"
"alexandra","24m2h",2024,6,15,14,54,40,2541,101,23,"female",20,"tpr","prpt",1,0,1545,1545,1545,"elephant4","",1,"","","","","","",1,1545,NA,1545,"prpt",1,"1","","",NA,NA,NA,NA,NA,NA,NA,NA,NA,NA,NA,NA,NA,NA,NA,NA,NA,"101"
"alexandra","24m2h",2024,6,15,14,54,46,2541,101,23,"female",21,"tpr","inhb",0,0,1119,1119,1119,"elephant","",1,"","","","","","",1,1119,NA,NA,"inhb",0,"","","",NA,NA,NA,NA,NA,NA,NA,NA,NA,NA,NA,NA,NA,NA,NA,NA,NA,"101"
"alexandra","24m2h",2024,6,15,14,54,52,2541,101,23,"female",22,"tpr","prpt",1,0,1912,1912,1912,"elephant2","",1,"","","","","","",1,1912,NA,1912,"prpt",1,"1","","",NA,NA,NA,NA,NA,NA,NA,NA,NA,NA,NA,NA,NA,NA,NA,NA,NA,"101"
"alexandra","24m2h",2024,6,15,14,54,59,2541,101,23,"female",23,"tpr","prpt",1,0,1933,1933,1933,"elephant","",1,"","","","","","",1,1933,NA,1933,"prpt",1,"1","","",NA,NA,NA,NA,NA,NA,NA,NA,NA,NA,NA,NA,NA,NA,NA,NA,NA,"101"
"alexandra","24m2h",2024,6,15,14,55,5,2541,101,23,"female",24,"tpr","prpt",1,0,1629,1629,1629,"elephant","",1,"","","","","","",1,1629,NA,1629,"prpt",1,"1","","",NA,NA,NA,NA,NA,NA,NA,NA,NA,NA,NA,NA,NA,NA,NA,NA,NA,"101"
"alexandra","24m2h",2024,6,15,14,55,11,2541,101,23,"female",25,"tpr","prpt",1,0,4241,4242,4242,"flower","",1,"","","","","","",1,4242,NA,4242,"prpt",1,"1","","",NA,NA,NA,NA,NA,NA,NA,NA,NA,NA,NA,NA,NA,NA,NA,NA,NA,"101"
"alexandra","24m2h",2024,6,15,14,55,19,2541,101,23,"female",26,"tpr","prpt",1,0,1598,1598,1598,"bus","",1,"","","","","","",1,1598,NA,1598,"prpt",1,"1","","",NA,NA,NA,NA,NA,NA,NA,NA,NA,NA,NA,NA,NA,NA,NA,NA,NA,"101"
"alexandra","24m2h",2024,6,15,14,55,25,2541,101,23,"female",27,"tpr","inhb",1,0,2242,2243,2243,"apple","",1,"","","","","","",1,2243,2243,NA,"inhb",1,"","1","",NA,NA,NA,NA,NA,NA,NA,NA,NA,NA,NA,NA,NA,NA,NA,NA,NA,"101"
"alexandra","24m2h",2024,6,15,14,55,31,2541,101,23,"female",28,"tpr","prpt",1,0,1561,1561,1561,"apple","",1,"","","","","","",1,1561,NA,1561,"prpt",1,"1","","",NA,NA,NA,NA,NA,NA,NA,NA,NA,NA,NA,NA,NA,NA,NA,NA,NA,"101"
"alexandra","24m2h",2024,6,15,14,55,37,2541,101,23,"female",29,"tpr","prpt",1,0,3110,3111,3111,"elephant2","",1,"","","","","","",1,3111,NA,3111,"prpt",1,"1","","",NA,NA,NA,NA,NA,NA,NA,NA,NA,NA,NA,NA,NA,NA,NA,NA,NA,"101"
"alexandra","24m2h",2024,6,15,14,55,44,2541,101,23,"female",30,"tpr","prpt",1,0,1719,1719,1719,"elephant","",1,"","","","","","",1,1719,NA,1719,"prpt",1,"1","","",NA,NA,NA,NA,NA,NA,NA,NA,NA,NA,NA,NA,NA,NA,NA,NA,NA,"101"
"alexandra","24m2h",2024,6,15,14,55,50,2541,101,23,"female",31,"tpr","prpt",1,0,1735,1735,1735,"elephant","",1,"","","","","","",1,1735,NA,1735,"prpt",1,"1","","",NA,NA,NA,NA,NA,NA,NA,NA,NA,NA,NA,NA,NA,NA,NA,NA,NA,"101"
"alexandra","24m2h",2024,6,15,14,55,56,2541,101,23,"female",32,"tpr","prpt",1,0,1920,1921,1921,"bus","",1,"","","","","","",1,1921,NA,1921,"prpt",1,"1","","",NA,NA,NA,NA,NA,NA,NA,NA,NA,NA,NA,NA,NA,NA,NA,NA,NA,"101"
"alexandra","24m2h",2024,6,8,20,52,58,2533,102,21,"female",1,"prl","",1,0,13762,13763,13763,"owl","left ",1,"none","none","none","none","none","none",0,13763,NA,NA,"",1,"","","AP","none",NA,NA,NA,NA,NA,NA,NA,NA,NA,NA,NA,NA,NA,NA,NA,NA,"102"
"alexandra","24m2h",2024,6,8,20,53,18,2533,102,21,"female",1,"prl","",1,0,3932,3932,3932,"owl","",1,"","","","","","",1,3932,NA,NA,"",1,"","","","",NA,NA,NA,NA,NA,NA,NA,NA,NA,NA,NA,NA,NA,NA,NA,NA,"102"
"alexandra","24m2h",2024,6,8,20,53,31,2533,102,21,"female",1,"tpl","prpt",1,0,4082,4082,4082,"flower","",1,"","","","","","",1,4082,NA,4082,"prpt",1,"1","","","",NA,NA,NA,NA,NA,NA,NA,NA,NA,NA,NA,NA,NA,NA,NA,NA,"102"
"alexandra","24m2h",2024,6,8,20,53,39,2533,102,21,"female",2,"tpl","prpt",1,0,9123,9123,9123,"owl","",1,"","","","","","",0,9123,NA,NA,"prpt",1,"1","","","",NA,NA,NA,NA,NA,NA,NA,NA,NA,NA,NA,NA,NA,NA,NA,NA,"102"
"alexandra","24m2h",2024,6,8,20,53,52,2533,102,21,"female",3,"tpl","prpt",1,0,3262,3262,3262,"apple","",1,"","","","","","",1,3262,NA,3262,"prpt",1,"1","","","",NA,NA,NA,NA,NA,NA,NA,NA,NA,NA,NA,NA,NA,NA,NA,NA,"102"
"alexandra","24m2h",2024,6,8,20,53,59,2533,102,21,"female",4,"tpl","prpt",1,0,6340,6341,6341,"flower","",1,"","","","","","",0,6341,NA,NA,"prpt",1,"1","","","",NA,NA,NA,NA,NA,NA,NA,NA,NA,NA,NA,NA,NA,NA,NA,NA,"102"
"alexandra","24m2h",2024,6,8,20,54,10,2533,102,21,"female",5,"tpl","prpt",1,0,4970,4970,4970,"flower","",1,"","","","","","",1,4970,NA,4970,"prpt",1,"1","","","",NA,NA,NA,NA,NA,NA,NA,NA,NA,NA,NA,NA,NA,NA,NA,NA,"102"
"alexandra","24m2h",2024,6,8,20,54,19,2533,102,21,"female",6,"tpl","inhb",1,0,4195,4196,4196,"apple","",1,"","","","","","",1,4196,NA,NA,"inhb",1,"","1","","",4196,NA,NA,NA,NA,NA,NA,NA,NA,NA,NA,NA,NA,NA,NA,NA,"102"
"alexandra","24m2h",2024,6,8,20,54,27,2533,102,21,"female",7,"tpl","prpt",1,0,5619,5619,5619,"apple","",1,"","","","","","",0,5619,NA,NA,"prpt",1,"1","","","",NA,NA,NA,NA,NA,NA,NA,NA,NA,NA,NA,NA,NA,NA,NA,NA,"102"
"alexandra","24m2h",2024,6,8,20,54,37,2533,102,21,"female",8,"tpl","prpt",1,0,2484,2484,2484,"elephant","",1,"","","","","","",1,2484,NA,2484,"prpt",1,"1","","","",NA,NA,NA,NA,NA,NA,NA,NA,NA,NA,NA,NA,NA,NA,NA,NA,"102"
"alexandra","24m2h",2024,6,8,20,54,44,2533,102,21,"female",9,"tpl","prpt",1,0,2471,2471,2471,"elephant","",1,"","","","","","",1,2471,NA,2471,"prpt",1,"1","","","",NA,NA,NA,NA,NA,NA,NA,NA,NA,NA,NA,NA,NA,NA,NA,NA,"102"
"alexandra","24m2h",2024,6,8,20,54,51,2533,102,21,"female",10,"tpl","prpt",1,0,2815,2815,2815,"bus","",1,"","","","","","",1,2815,NA,2815,"prpt",1,"1","","","",NA,NA,NA,NA,NA,NA,NA,NA,NA,NA,NA,NA,NA,NA,NA,NA,"102"
"alexandra","24m2h",2024,6,8,20,54,58,2533,102,21,"female",11,"tpl","prpt",1,0,1769,2078,2078,"owl","",1,"","","","","","",1,2078,NA,2078,"prpt",1,"1","","","",NA,NA,NA,NA,NA,NA,NA,NA,NA,NA,NA,NA,NA,NA,NA,NA,"102"
"alexandra","24m2h",2024,6,8,20,55,4,2533,102,21,"female",12,"tpl","inhb",0,0,2197,2197,2197,"elephant2","",1,"","","","","","",1,2197,NA,NA,"inhb",0,"","","","",NA,NA,NA,NA,NA,NA,NA,NA,NA,NA,NA,NA,NA,NA,NA,NA,"102"
"alexandra","24m2h",2024,6,8,20,55,16,2533,102,21,"female",13,"tpl","prpt",1,0,1894,1894,1894,"apple","",1,"","","","","","",1,1894,NA,1894,"prpt",1,"1","","","",NA,NA,NA,NA,NA,NA,NA,NA,NA,NA,NA,NA,NA,NA,NA,NA,"102"
"alexandra","24m2h",2024,6,8,20,55,22,2533,102,21,"female",14,"tpl","prpt",1,0,863,863,863,"apple","",1,"","","","","","",1,863,NA,863,"prpt",1,"1","","","",NA,NA,NA,NA,NA,NA,NA,NA,NA,NA,NA,NA,NA,NA,NA,NA,"102"
"alexandra","24m2h",2024,6,8,20,55,27,2533,102,21,"female",15,"tpl","prpt",1,0,1297,1297,1297,"bus","",1,"","","","","","",1,1297,NA,1297,"prpt",1,"1","","","",NA,NA,NA,NA,NA,NA,NA,NA,NA,NA,NA,NA,NA,NA,NA,NA,"102"
"alexandra","24m2h",2024,6,8,20,55,33,2533,102,21,"female",16,"tpl","inhb",0,0,1301,1301,1301,"bus","",1,"","","","","","",1,1301,NA,NA,"inhb",0,"","","","",NA,NA,NA,NA,NA,NA,NA,NA,NA,NA,NA,NA,NA,NA,NA,NA,"102"
"alexandra","24m2h",2024,6,8,20,55,46,2533,102,21,"female",17,"tpl","prpt",1,0,1368,1383,1383,"elephant2","",1,"","","","","","",1,1383,NA,1383,"prpt",1,"1","","","",NA,NA,NA,NA,NA,NA,NA,NA,NA,NA,NA,NA,NA,NA,NA,NA,"102"
"alexandra","24m2h",2024,6,8,20,55,51,2533,102,21,"female",18,"tpl","prpt",1,0,11932,11933,11933,"elephant4","",1,"","","","","","",0,11933,NA,NA,"prpt",1,"1","","","",NA,NA,NA,NA,NA,NA,NA,NA,NA,NA,NA,NA,NA,NA,NA,NA,"102"
"alexandra","24m2h",2024,6,8,20,56,7,2533,102,21,"female",19,"tpl","inhb",0,0,6963,7130,7130,"elephant2","",1,"","","","","","",0,7130,NA,NA,"inhb",0,"","","","",NA,NA,NA,NA,NA,NA,NA,NA,NA,NA,NA,NA,NA,NA,NA,NA,"102"
"alexandra","24m2h",2024,6,8,20,56,21,2533,102,21,"female",20,"tpl","inhb",1,0,3536,3536,3536,"flower","",1,"","","","","","",1,3536,NA,NA,"inhb",1,"","1","","",3536,NA,NA,NA,NA,NA,NA,NA,NA,NA,NA,NA,NA,NA,NA,NA,"102"
"alexandra","24m2h",2024,6,8,20,56,29,2533,102,21,"female",21,"tpl","prpt",0,0,2234,2234,2234,"apple","",1,"","","","","","",1,2234,NA,NA,"prpt",0,"","","","",NA,NA,NA,NA,NA,NA,NA,NA,NA,NA,NA,NA,NA,NA,NA,NA,"102"
"alexandra","24m2h",2024,6,8,20,56,37,2533,102,21,"female",22,"tpl","prpt",1,0,1211,1211,1211,"elephant4","",1,"","","","","","",1,1211,NA,1211,"prpt",1,"1","","","",NA,NA,NA,NA,NA,NA,NA,NA,NA,NA,NA,NA,NA,NA,NA,NA,"102"
"alexandra","24m2h",2024,6,8,20,56,42,2533,102,21,"female",23,"tpl","prpt",1,0,3354,3354,3354,"owl","",1,"","","","","","",1,3354,NA,3354,"prpt",1,"1","","","",NA,NA,NA,NA,NA,NA,NA,NA,NA,NA,NA,NA,NA,NA,NA,NA,"102"
"alexandra","24m2h",2024,6,8,20,56,49,2533,102,21,"female",24,"tpl","prpt",1,0,1507,1507,1507,"bus","",1,"","","","","","",1,1507,NA,1507,"prpt",1,"1","","","",NA,NA,NA,NA,NA,NA,NA,NA,NA,NA,NA,NA,NA,NA,NA,NA,"102"
"alexandra","24m2h",2024,6,8,20,56,55,2533,102,21,"female",25,"tpl","prpt",1,0,4836,4836,4836,"apple","",1,"","","","","","",1,4836,NA,4836,"prpt",1,"1","","","",NA,NA,NA,NA,NA,NA,NA,NA,NA,NA,NA,NA,NA,NA,NA,NA,"102"
"alexandra","24m2h",2024,6,8,20,57,4,2533,102,21,"female",26,"tpl","inhb",0,0,2163,2163,2163,"elephant4","",1,"","","","","","",1,2163,NA,NA,"inhb",0,"","","","",NA,NA,NA,NA,NA,NA,NA,NA,NA,NA,NA,NA,NA,NA,NA,NA,"102"
"alexandra","24m2h",2024,6,8,20,57,11,2533,102,21,"female",27,"tpl","prpt",1,0,9838,9970,9970,"owl","",1,"","","","","","",0,9970,NA,NA,"prpt",1,"1","","","",NA,NA,NA,NA,NA,NA,NA,NA,NA,NA,NA,NA,NA,NA,NA,NA,"102"
"alexandra","24m2h",2024,6,8,20,57,25,2533,102,21,"female",28,"tpl","prpt",1,0,2765,2831,2831,"bus","",1,"","","","","","",1,2831,NA,2831,"prpt",1,"1","","","",NA,NA,NA,NA,NA,NA,NA,NA,NA,NA,NA,NA,NA,NA,NA,NA,"102"
"alexandra","24m2h",2024,6,8,20,57,32,2533,102,21,"female",29,"tpl","prpt",1,0,1036,1036,1036,"elephant2","",1,"","","","","","",1,1036,NA,1036,"prpt",1,"1","","","",NA,NA,NA,NA,NA,NA,NA,NA,NA,NA,NA,NA,NA,NA,NA,NA,"102"
"alexandra","24m2h",2024,6,8,20,57,38,2533,102,21,"female",30,"tpl","inhb",0,0,4683,4684,4684,"elephant2","",1,"","","","","","",1,4684,NA,NA,"inhb",0,"","","","",NA,NA,NA,NA,NA,NA,NA,NA,NA,NA,NA,NA,NA,NA,NA,NA,"102"
"alexandra","24m2h",2024,6,8,20,57,49,2533,102,21,"female",31,"tpl","inhb",1,0,3246,3812,3812,"bus","",1,"","","","","","",1,3812,NA,NA,"inhb",1,"","1","","",3812,NA,NA,NA,NA,NA,NA,NA,NA,NA,NA,NA,NA,NA,NA,NA,"102"
"alexandra","24m2h",2024,6,8,20,57,57,2533,102,21,"female",32,"tpl","prpt",1,0,1996,1996,1996,"bus","",1,"","","","","","",1,1996,NA,1996,"prpt",1,"1","","","",NA,NA,NA,NA,NA,NA,NA,NA,NA,NA,NA,NA,NA,NA,NA,NA,"102"
"alexandra","24m2h",2024,6,22,19,41,18,2552,104,21,"female",1,"prr","",1,0,7872,7872,7872,"elephant2","right",1,"none","none","none","none","","",0,7872,NA,NA,"",1,"","",NA,"none",NA,NA,NA,NA,NA,NA,NA,NA,NA,NA,NA,NA,NA,NA,NA,NA,"104"
"alexandra","24m2h",2024,6,22,19,41,32,2552,104,21,"female",1,"prr","",1,0,8331,8331,8331,"flower","",1,"","","","","","",0,8331,NA,NA,"",1,"","",NA,"",NA,NA,NA,NA,NA,NA,NA,NA,NA,NA,NA,NA,NA,NA,NA,NA,"104"
"alexandra","24m2h",2024,6,22,19,41,55,2552,104,21,"female",1,"tpr","prpt",1,0,2817,2817,2817,"bus","",1,"","","","","","",1,2817,NA,NA,"prpt",0,"","",NA,"",NA,NA,NA,NA,NA,NA,NA,NA,NA,NA,NA,NA,NA,NA,NA,NA,"104"
"alexandra","24m2h",2024,6,22,19,42,2,2552,104,21,"female",2,"tpr","prpt",1,0,1780,1780,1780,"elephant","",1,"","","","","","",1,1780,NA,NA,"prpt",0,"","",NA,"",NA,NA,NA,NA,NA,NA,NA,NA,NA,NA,NA,NA,NA,NA,NA,NA,"104"
"alexandra","24m2h",2024,6,22,19,42,8,2552,104,21,"female",3,"tpr","prpt",1,0,1866,2147,2147,"owl","",1,"","","","","","",1,2147,NA,2147,"prpt",1,"1","",NA,"",NA,NA,NA,NA,NA,NA,NA,NA,NA,NA,NA,NA,NA,NA,NA,NA,"104"
"alexandra","24m2h",2024,6,22,19,42,14,2552,104,21,"female",4,"tpr","prpt",1,0,4231,4231,4231,"elephant","",1,"","","","","","",1,4231,NA,4231,"prpt",1,"1","",NA,"",NA,NA,NA,NA,NA,NA,NA,NA,NA,NA,NA,NA,NA,NA,NA,NA,"104"
"alexandra","24m2h",2024,6,22,19,42,22,2552,104,21,"female",5,"tpr","prpt",1,0,3839,3839,3839,"bus","",1,"","","","","","",1,3839,NA,NA,"prpt",0,"","",NA,"",NA,NA,NA,NA,NA,NA,NA,NA,NA,NA,NA,NA,NA,NA,NA,NA,"104"
"alexandra","24m2h",2024,6,22,19,42,30,2552,104,21,"female",6,"tpr","inhb",0,0,3674,3674,3674,"elephant2","",1,"","","","","","",1,3674,NA,NA,"inhb",0,"","",NA,"",NA,NA,NA,NA,NA,NA,NA,NA,NA,NA,NA,NA,NA,NA,NA,NA,"104"
"alexandra","24m2h",2024,6,22,19,42,44,2552,104,21,"female",7,"tpr","prpt",1,0,4342,4342,4342,"apple","",1,"","","","","","",1,4342,NA,4342,"prpt",1,"1","",NA,"",NA,NA,NA,NA,NA,NA,NA,NA,NA,NA,NA,NA,NA,NA,NA,NA,"104"
"alexandra","24m2h",2024,6,22,19,42,52,2552,104,21,"female",8,"tpr","prpt",1,0,5113,5113,5113,"elephant2","",1,"","","","","","",0,5113,NA,NA,"prpt",1,"1","",NA,"",NA,NA,NA,NA,NA,NA,NA,NA,NA,NA,NA,NA,NA,NA,NA,NA,"104"
"alexandra","24m2h",2024,6,22,19,43,2,2552,104,21,"female",9,"tpr","prpt",1,0,4683,4683,4683,"elephant2","",1,"","","","","","",1,4683,NA,4683,"prpt",1,"1","",NA,"",NA,NA,NA,NA,NA,NA,NA,NA,NA,NA,NA,NA,NA,NA,NA,NA,"104"
"alexandra","24m2h",2024,6,22,19,43,10,2552,104,21,"female",10,"tpr","prpt",1,0,3095,3095,3095,"apple","",1,"","","","","","",1,3095,NA,3095,"prpt",1,"1","",NA,"",NA,NA,NA,NA,NA,NA,NA,NA,NA,NA,NA,NA,NA,NA,NA,NA,"104"
"alexandra","24m2h",2024,6,22,19,43,18,2552,104,21,"female",11,"tpr","prpt",1,0,3672,3672,3672,"flower","",1,"","","","","y","c",1,3672,NA,NA,"prpt",1,"1","",NA,"",NA,NA,NA,NA,NA,NA,NA,NA,NA,NA,NA,NA,NA,NA,NA,NA,"104"
"alexandra","24m2h",2024,6,22,19,43,26,2552,104,21,"female",12,"tpr","inhb",1,0,4397,4397,4397,"flower","",1,"","","","","","",1,4397,4397,NA,"inhb",1,"","1",NA,"",NA,NA,NA,NA,NA,NA,NA,NA,NA,NA,NA,NA,NA,NA,NA,NA,"104"
"alexandra","24m2h",2024,6,22,19,43,34,2552,104,21,"female",13,"tpr","inhb",1,0,2220,2220,2220,"apple","",1,"","","","","","",1,2220,2220,NA,"inhb",1,"","1",NA,"",NA,NA,NA,NA,NA,NA,NA,NA,NA,NA,NA,NA,NA,NA,NA,NA,"104"
"alexandra","24m2h",2024,6,22,19,43,41,2552,104,21,"female",14,"tpr","prpt",1,0,3321,3321,3321,"elephant","",1,"","","","","","",1,3321,NA,3321,"prpt",1,"1","",NA,"",NA,NA,NA,NA,NA,NA,NA,NA,NA,NA,NA,NA,NA,NA,NA,NA,"104"
"alexandra","24m2h",2024,6,22,19,43,48,2552,104,21,"female",15,"tpr","prpt",1,0,5714,6239,6239,"elephant","",1,"","","","","","",0,6239,NA,NA,"prpt",1,"1","",NA,"",NA,NA,NA,NA,NA,NA,NA,NA,NA,NA,NA,NA,NA,NA,NA,NA,"104"
"alexandra","24m2h",2024,6,22,19,43,59,2552,104,21,"female",16,"tpr","prpt",1,0,5448,5448,5448,"owl","",1,"","","","","","",0,5448,NA,NA,"prpt",1,"1","",NA,"",NA,NA,NA,NA,NA,NA,NA,NA,NA,NA,NA,NA,NA,NA,NA,NA,"104"
"alexandra","24m2h",2024,6,22,19,44,8,2552,104,21,"female",17,"tpr","prpt",1,0,4911,6254,6254,"owl","",1,"","","","","","",0,6254,NA,NA,"prpt",1,"1","",NA,"",NA,NA,NA,NA,NA,NA,NA,NA,NA,NA,NA,NA,NA,NA,NA,NA,"104"
"alexandra","24m2h",2024,6,22,19,44,18,2552,104,21,"female",18,"tpr","prpt",1,0,3057,3058,3058,"elephant4","",1,"","","","","","",1,3058,NA,3058,"prpt",1,"1","",NA,"",NA,NA,NA,NA,NA,NA,NA,NA,NA,NA,NA,NA,NA,NA,NA,NA,"104"
"alexandra","24m2h",2024,6,22,19,44,26,2552,104,21,"female",19,"tpr","inhb",1,0,3955,3955,3955,"elephant2","",1,"","","","","","",1,3955,3955,NA,"inhb",1,"","1",NA,"",NA,NA,NA,NA,NA,NA,NA,NA,NA,NA,NA,NA,NA,NA,NA,NA,"104"
"alexandra","24m2h",2024,6,22,19,44,34,2552,104,21,"female",20,"tpr","prpt",1,0,3467,3467,3467,"bus","",1,"","","","","","",1,3467,NA,3497,"prpt",1,"1","",NA,"",NA,NA,NA,NA,NA,NA,NA,NA,NA,NA,NA,NA,NA,NA,NA,NA,"104"
"alexandra","24m2h",2024,6,22,19,44,41,2552,104,21,"female",21,"tpr","inhb",1,0,2992,3005,3005,"flower","",1,"","","","","","",1,3005,3005,NA,"inhb",1,"","1",NA,"",NA,NA,NA,NA,NA,NA,NA,NA,NA,NA,NA,NA,NA,NA,NA,NA,"104"
"alexandra","24m2h",2024,6,22,19,44,49,2552,104,21,"female",22,"tpr","prpt",1,0,4825,4825,4825,"elephant4","",1,"","","","","","",1,4825,NA,4825,"prpt",1,"1","",NA,"",NA,NA,NA,NA,NA,NA,NA,NA,NA,NA,NA,NA,NA,NA,NA,NA,"104"
"alexandra","24m2h",2024,6,22,19,44,58,2552,104,21,"female",23,"tpr","prpt",1,0,3605,3605,3605,"elephant4","",1,"","","","","","",1,3605,NA,3605,"prpt",1,"1","",NA,"",NA,NA,NA,NA,NA,NA,NA,NA,NA,NA,NA,NA,NA,NA,NA,NA,"104"
"alexandra","24m2h",2024,6,22,19,45,5,2552,104,21,"female",24,"tpr","inhb",1,0,3050,3365,3365,"apple","",1,"","","","","","",1,3365,3365,NA,"inhb",1,"","1",NA,"",NA,NA,NA,NA,NA,NA,NA,NA,NA,NA,NA,NA,NA,NA,NA,NA,"104"
"alexandra","24m2h",2024,6,22,19,45,13,2552,104,21,"female",25,"tpr","inhb",1,0,1555,2130,2130,"apple","",1,"","","","","","",1,2130,2130,NA,"inhb",1,"","1",NA,"",NA,NA,NA,NA,NA,NA,NA,NA,NA,NA,NA,NA,NA,NA,NA,NA,"104"
"alexandra","24m2h",2024,6,22,19,45,19,2552,104,21,"female",26,"tpr","prpt",1,0,3743,3957,3957,"owl","",1,"","","","","","",1,3957,NA,3957,"prpt",1,"1","",NA,"",NA,NA,NA,NA,NA,NA,NA,NA,NA,NA,NA,NA,NA,NA,NA,NA,"104"
"alexandra","24m2h",2024,6,22,19,45,27,2552,104,21,"female",27,"tpr","prpt",1,0,3634,3635,3635,"owl","",1,"","","","","","",1,3635,NA,3635,"prpt",1,"1","",NA,"",NA,NA,NA,NA,NA,NA,NA,NA,NA,NA,NA,NA,NA,NA,NA,NA,"104"
"alexandra","24m2h",2024,6,22,19,45,35,2552,104,21,"female",28,"tpr","prpt",1,0,5046,5046,5046,"bus","",1,"","","","","","",0,5046,NA,NA,"prpt",1,"1","",NA,"",NA,NA,NA,NA,NA,NA,NA,NA,NA,NA,NA,NA,NA,NA,NA,NA,"104"
"alexandra","24m2h",2024,6,22,19,45,44,2552,104,21,"female",29,"tpr","inhb",1,0,2112,2576,2576,"owl","",1,"","","","","","",1,2576,2576,NA,"inhb",1,"","1",NA,"",NA,NA,NA,NA,NA,NA,NA,NA,NA,NA,NA,NA,NA,NA,NA,NA,"104"
"alexandra","24m2h",2024,6,22,19,45,51,2552,104,21,"female",30,"tpr","prpt",1,0,2557,2557,2557,"flower","",1,"","","","","","",1,2557,NA,NA,"prpt",0,"","",NA,"",NA,NA,NA,NA,NA,NA,NA,NA,NA,NA,NA,NA,NA,NA,NA,NA,"104"
"alexandra","24m2h",2024,6,22,19,45,57,2552,104,21,"female",31,"tpr","prpt",1,0,3781,4615,4615,"apple","",1,"","","","","","",1,4615,NA,4617,"prpt",1,"1","",NA,"",NA,NA,NA,NA,NA,NA,NA,NA,NA,NA,NA,NA,NA,NA,NA,NA,"104"
"alexandra","24m2h",2024,6,22,19,46,6,2552,104,21,"female",32,"tpr","prpt",1,0,862,1987,1987,"bus","",1,"","","","","","",1,1987,NA,1987,"prpt",1,"1","",NA,"",NA,NA,NA,NA,NA,NA,NA,NA,NA,NA,NA,NA,NA,NA,NA,NA,"104"
"alexandra","24m2h",2024,6,22,13,10,7,2550,107,17,"male",1,"prr","",1,0,6259,6259,6259,"elephant4","right",1,NA,"none","none","none","none","none",0,6259,NA,NA,"",1,"","","AP","none",NA,NA,NA,NA,NA,NA,NA,NA,NA,NA,NA,NA,NA,NA,NA,NA,"107"
"alexandra","24m2h",2024,6,22,13,10,19,2550,107,17,"male",1,"prr","",1,0,9304,9304,9304,"flower","",1,NA,"","","","","",0,9304,NA,NA,"",1,"","","","",NA,NA,NA,NA,NA,NA,NA,NA,NA,NA,NA,NA,NA,NA,NA,NA,"107"
"alexandra","24m2h",2024,6,22,13,10,34,2550,107,17,"male",1,"prr","",1,0,8417,8417,8417,"bus","",1,NA,"","","","","",0,8417,NA,NA,"",1,"","","","",NA,NA,NA,NA,NA,NA,NA,NA,NA,NA,NA,NA,NA,NA,NA,NA,"107"
"alexandra","24m2h",2024,6,22,13,10,47,2550,107,17,"male",1,"prr","",1,0,6290,6290,6290,"flower","",1,NA,"","","","","",0,6290,NA,NA,"",1,"","","","",NA,NA,NA,NA,NA,NA,NA,NA,NA,NA,NA,NA,NA,NA,NA,NA,"107"
"alexandra","24m2h",2024,6,22,13,10,58,2550,107,17,"male",1,"prr","",1,0,6286,7145,7145,"elephant2","",1,NA,"","","","","",0,7145,NA,NA,"",1,"","","","",NA,NA,NA,NA,NA,NA,NA,NA,NA,NA,NA,NA,NA,NA,NA,NA,"107"
"alexandra","24m2h",2024,6,22,13,11,10,2550,107,17,"male",1,"prr","",1,0,3787,3787,3787,"flower","",1,NA,"","","","","",1,3787,NA,NA,"",1,"","","","",NA,NA,NA,NA,NA,NA,NA,NA,NA,NA,NA,NA,NA,NA,NA,NA,"107"
"alexandra","24m2h",2024,6,22,13,11,31,2550,107,17,"male",1,"tpr","prpt",0,0,4389,4390,4390,"flower","",1,"9","","","","","",1,4390,NA,NA,"prpt",0,"","","","",NA,NA,NA,NA,NA,NA,NA,NA,NA,NA,NA,NA,NA,NA,NA,NA,"107"
"alexandra","24m2h",2024,6,22,13,11,43,2550,107,17,"male",2,"tpr","prpt",0,0,379,1471,1471,"elephant2","",1,"9","","","","","",1,1471,NA,NA,"prpt",0,"","","","",NA,NA,NA,NA,NA,NA,NA,NA,NA,NA,NA,NA,NA,NA,NA,NA,"107"
"alexandra","24m2h",2024,6,22,13,11,49,2550,107,17,"male",3,"tpr","prpt",1,0,2063,2063,2063,"bus","",1,NA,"","","","","",1,2063,NA,2063,"prpt",1,"1","","","",NA,NA,NA,NA,NA,NA,NA,NA,NA,NA,NA,NA,NA,NA,NA,NA,"107"
"alexandra","24m2h",2024,6,22,13,11,56,2550,107,17,"male",4,"tpr","prpt",1,0,1411,2002,2002,"bus","",1,NA,"","","","","",1,2002,NA,2002,"prpt",1,"1","","","",NA,NA,NA,NA,NA,NA,NA,NA,NA,NA,NA,NA,NA,NA,NA,NA,"107"
"alexandra","24m2h",2024,6,22,13,12,2,2550,107,17,"male",5,"tpr","prpt",1,0,3648,3648,3648,"apple","",1,NA,"","","","","",1,3648,NA,3648,"prpt",1,"1","","","",NA,NA,NA,NA,NA,NA,NA,NA,NA,NA,NA,NA,NA,NA,NA,NA,"107"
"alexandra","24m2h",2024,6,22,13,12,10,2550,107,17,"male",6,"tpr","inhb",0,0,167,167,167,"owl","",0,"3","","","","","",1,167,NA,NA,"inhb",0,"","","","",NA,NA,NA,NA,NA,NA,NA,NA,NA,NA,NA,NA,NA,NA,NA,NA,"107"
"alexandra","24m2h",2024,6,22,13,12,18,2550,107,17,"male",7,"tpr","prpt",1,0,2528,2551,2551,"elephant2","",1,NA,"","","","","",1,2551,NA,2551,"prpt",1,"1","","","",NA,NA,NA,NA,NA,NA,NA,NA,NA,NA,NA,NA,NA,NA,NA,NA,"107"
"alexandra","24m2h",2024,6,22,13,12,25,2550,107,17,"male",8,"tpr","inhb",1,0,1306,1306,1306,"elephant","",1,NA,"","","","","",1,1306,1306,NA,"inhb",1,"","1","","",NA,NA,NA,NA,NA,NA,NA,NA,NA,NA,NA,NA,NA,NA,NA,NA,"107"
"alexandra","24m2h",2024,6,22,13,12,30,2550,107,17,"male",9,"tpr","inhb",1,0,15,15,15,"elephant4","",0,"3","","","","","",1,15,NA,NA,"inhb",1,"","","","",NA,NA,NA,NA,NA,NA,NA,NA,NA,NA,NA,NA,NA,NA,NA,NA,"107"
"alexandra","24m2h",2024,6,22,13,12,35,2550,107,17,"male",10,"tpr","prpt",1,0,290,3625,3625,"apple","",1,NA,"","","","","",1,3625,NA,3625,"prpt",1,"1","","","",NA,NA,NA,NA,NA,NA,NA,NA,NA,NA,NA,NA,NA,NA,NA,NA,"107"
"alexandra","24m2h",2024,6,22,13,12,42,2550,107,17,"male",11,"tpr","inhb",0,0,763,763,763,"owl","",1,NA,"","","","","",1,763,NA,NA,"inhb",0,"","","","",NA,NA,NA,NA,NA,NA,NA,NA,NA,NA,NA,NA,NA,NA,NA,NA,"107"
"alexandra","24m2h",2024,6,22,13,12,48,2550,107,17,"male",12,"tpr","prpt",1,0,60,912,912,"bus","",1,NA,"","","","","",1,912,NA,912,"prpt",1,"1","","","",NA,NA,NA,NA,NA,NA,NA,NA,NA,NA,NA,NA,NA,NA,NA,NA,"107"
"alexandra","24m2h",2024,6,22,13,12,53,2550,107,17,"male",13,"tpr","prpt",1,0,25927,26318,26318,"owl","",1,NA,"","","","","",0,26318,NA,NA,"prpt",1,"1","","","",NA,NA,NA,NA,NA,NA,NA,NA,NA,NA,NA,NA,NA,NA,NA,NA,"107"
"alexandra","24m2h",2024,6,22,13,13,23,2550,107,17,"male",14,"tpr","inhb",1,0,370,1095,1095,"elephant","",1,NA,"","","","","",1,1095,1095,NA,"inhb",1,"","1","","",NA,NA,NA,NA,NA,NA,NA,NA,NA,NA,NA,NA,NA,NA,NA,NA,"107"
"alexandra","24m2h",2024,6,22,13,13,29,2550,107,17,"male",15,"tpr","prpt",1,0,3293,3293,3293,"elephant2","",1,NA,"","","","","",1,3293,NA,3293,"prpt",1,"1","","","",NA,NA,NA,NA,NA,NA,NA,NA,NA,NA,NA,NA,NA,NA,NA,NA,"107"
"alexandra","24m2h",2024,6,22,13,13,36,2550,107,17,"male",16,"tpr","prpt",0,0,107,1850,1850,"apple","",1,NA,"","","","","",1,1850,NA,NA,"prpt",0,"","","","",NA,NA,NA,NA,NA,NA,NA,NA,NA,NA,NA,NA,NA,NA,NA,NA,"107"
"alexandra","24m2h",2024,6,22,13,13,44,2550,107,17,"male",17,"tpr","prpt",1,0,10936,11034,11034,"flower","",1,NA,"","","","","",0,11034,NA,NA,"prpt",1,"1","","","",NA,NA,NA,NA,NA,NA,NA,NA,NA,NA,NA,NA,NA,NA,NA,NA,"107"
"alexandra","24m2h",2024,6,22,13,13,59,2550,107,17,"male",18,"tpr","inhb",0,0,1282,1282,1282,"flower","",1,NA,"","","","","",1,1282,NA,NA,"inhb",0,"","","","",NA,NA,NA,NA,NA,NA,NA,NA,NA,NA,NA,NA,NA,NA,NA,NA,"107"
"alexandra","24m2h",2024,6,22,13,14,6,2550,107,17,"male",19,"tpr","prpt",0,0,829,829,829,"elephant4","",1,NA,"","","","","",1,829,NA,NA,"prpt",0,"","","","",NA,NA,NA,NA,NA,NA,NA,NA,NA,NA,NA,NA,NA,NA,NA,NA,"107"
"alexandra","24m2h",2024,6,22,13,14,12,2550,107,17,"male",20,"tpr","prpt",1,0,699,715,715,"flower","",1,NA,"","","","","",1,715,NA,715,"prpt",1,"1","","","",NA,NA,NA,NA,NA,NA,NA,NA,NA,NA,NA,NA,NA,NA,NA,NA,"107"
"alexandra","24m2h",2024,6,22,13,14,17,2550,107,17,"male",21,"tpr","inhb",1,0,2660,2660,2660,"elephant4","",1,NA,"","","","","",1,2660,2660,NA,"inhb",1,"","1","","",NA,NA,NA,NA,NA,NA,NA,NA,NA,NA,NA,NA,NA,NA,NA,NA,"107"
"alexandra","24m2h",2024,6,22,13,14,24,2550,107,17,"male",22,"tpr","prpt",1,0,1776,2127,2127,"bus","",1,NA,"","","","","",1,2127,NA,2127,"prpt",1,"1","","","",NA,NA,NA,NA,NA,NA,NA,NA,NA,NA,NA,NA,NA,NA,NA,NA,"107"
"alexandra","24m2h",2024,6,22,13,14,31,2550,107,17,"male",23,"tpr","prpt",1,0,1605,1605,1605,"apple","",1,NA,"","","","","",1,1605,NA,1605,"prpt",1,"1","","","",NA,NA,NA,NA,NA,NA,NA,NA,NA,NA,NA,NA,NA,NA,NA,NA,"107"
"alexandra","24m2h",2024,6,22,13,14,36,2550,107,17,"male",24,"tpr","prpt",1,0,6807,7315,7315,"flower","",1,NA,"","","","","",0,7315,NA,NA,"prpt",1,"1","","","",NA,NA,NA,NA,NA,NA,NA,NA,NA,NA,NA,NA,NA,NA,NA,NA,"107"
"alexandra","24m2h",2024,6,22,13,14,48,2550,107,17,"male",25,"tpr","prpt",1,0,4,372,372,"elephant2","",1,NA,"","","","","",1,372,NA,372,"prpt",1,"1","","","",NA,NA,NA,NA,NA,NA,NA,NA,NA,NA,NA,NA,NA,NA,NA,NA,"107"
"alexandra","24m2h",2024,6,22,13,14,53,2550,107,17,"male",26,"tpr","prpt",1,0,2664,2664,2664,"owl","",1,NA,"","","","","",1,2664,NA,2662,"prpt",1,"1","","","",NA,NA,NA,NA,NA,NA,NA,NA,NA,NA,NA,NA,NA,NA,NA,NA,"107"
"alexandra","24m2h",2024,6,22,13,14,59,2550,107,17,"male",27,"tpr","inhb",1,0,16138,16153,16153,"elephant","",1,NA,"","","","","",0,16153,NA,NA,"inhb",1,"","1","","",NA,NA,NA,NA,NA,NA,NA,NA,NA,NA,NA,NA,NA,NA,NA,NA,"107"
"alexandra","24m2h",2024,6,22,13,15,19,2550,107,17,"male",28,"tpr","prpt",1,0,1926,1926,1926,"elephant","",1,NA,"","","","","",1,1926,NA,1926,"prpt",1,"1","","","",NA,NA,NA,NA,NA,NA,NA,NA,NA,NA,NA,NA,NA,NA,NA,NA,"107"
"alexandra","24m2h",2024,6,22,13,15,26,2550,107,17,"male",29,"tpr","prpt",1,0,17004,17396,17396,"bus","",1,NA,"","","","","",0,17396,NA,NA,"prpt",1,"1","","","",NA,NA,NA,NA,NA,NA,NA,NA,NA,NA,NA,NA,NA,NA,NA,NA,"107"
"alexandra","24m2h",2024,6,22,13,15,47,2550,107,17,"male",30,"tpr","prpt",1,0,245,246,246,"flower","",0,"3","","","","","",1,246,NA,NA,"prpt",1,"","","","",NA,NA,NA,NA,NA,NA,NA,NA,NA,NA,NA,NA,NA,NA,NA,NA,"107"
"alexandra","24m2h",2024,6,22,13,15,52,2550,107,17,"male",31,"tpr","prpt",1,0,16660,16660,16660,"elephant4","",1,NA,"","","","","",0,16660,NA,NA,"prpt",1,"1","","","",NA,NA,NA,NA,NA,NA,NA,NA,NA,NA,NA,NA,NA,NA,NA,NA,"107"
"alexandra","24m2h",2024,6,22,13,16,12,2550,107,17,"male",32,"tpr","prpt",1,0,131,131,131,"owl","",0,"3","","","","","",1,131,NA,NA,"prpt",1,"","","","",NA,NA,NA,NA,NA,NA,NA,NA,NA,NA,NA,NA,NA,NA,NA,NA,"107"
"alexandra","24m2h",2024,6,22,15,1,57,2551,108,18,"male",1,"prl","",1,0,6274,6274,6274,"apple","left",1,NA,"none","none","none","none","none",0,6274,NA,NA,"",1,"","","AP","none",NA,NA,NA,NA,NA,NA,NA,NA,NA,NA,NA,NA,NA,NA,NA,NA,"108"
"alexandra","24m2h",2024,6,22,15,2,8,2551,108,18,"male",1,"prl","",1,0,12577,12946,12946,"elephant4","",1,NA,"","","","","",0,12946,NA,NA,"",1,"","","","",NA,NA,NA,NA,NA,NA,NA,NA,NA,NA,NA,NA,NA,NA,NA,NA,"108"
"alexandra","24m2h",2024,6,22,15,2,26,2551,108,18,"male",1,"prl","",1,0,1837,4036,4036,"apple","",1,NA,"","","","","",1,4036,NA,NA,"",1,"","","","",NA,NA,NA,NA,NA,NA,NA,NA,NA,NA,NA,NA,NA,NA,NA,NA,"108"
"alexandra","24m2h",2024,6,22,15,2,34,2551,108,18,"male",1,"tpl","prpt",1,0,119,3129,3129,"apple","",1,NA,"","","","","",1,3129,NA,3129,"prpt",1,"1","","","",NA,NA,NA,NA,NA,NA,NA,NA,NA,NA,NA,NA,NA,NA,NA,NA,"108"
"alexandra","24m2h",2024,6,22,15,2,42,2551,108,18,"male",2,"tpl","prpt",0,0,277,1120,1120,"elephant2","",1,NA,"","","","","",1,1120,NA,NA,"prpt",0,"","","","",NA,NA,NA,NA,NA,NA,NA,NA,NA,NA,NA,NA,NA,NA,NA,NA,"108"
"alexandra","24m2h",2024,6,22,15,2,52,2551,108,18,"male",3,"tpl","prpt",0,0,1583,1583,1583,"elephant2","",1,NA,"","","","","",1,1583,NA,NA,"prpt",0,"","","","",NA,NA,NA,NA,NA,NA,NA,NA,NA,NA,NA,NA,NA,NA,NA,NA,"108"
"alexandra","24m2h",2024,6,22,15,2,59,2551,108,18,"male",4,"tpl","inhb",1,0,1049,1882,1882,"elephant4","",1,NA,"","","","","",1,1882,NA,NA,"inhb",1,"","1","","",1882,NA,NA,NA,NA,NA,NA,NA,NA,NA,NA,NA,NA,NA,NA,NA,"108"
"alexandra","24m2h",2024,6,22,15,3,5,2551,108,18,"male",5,"tpl","inhb",1,0,1409,1409,1409,"owl","",1,NA,"","","","","",1,1409,NA,NA,"inhb",1,"","1","","",1409,NA,NA,NA,NA,NA,NA,NA,NA,NA,NA,NA,NA,NA,NA,NA,"108"
"alexandra","24m2h",2024,6,22,15,3,11,2551,108,18,"male",6,"tpl","prpt",0,0,1505,1505,1505,"elephant2","",1,NA,"","","","","",1,1505,NA,NA,"prpt",0,"","","","",NA,NA,NA,NA,NA,NA,NA,NA,NA,NA,NA,NA,NA,NA,NA,NA,"108"
"alexandra","24m2h",2024,6,22,15,3,19,2551,108,18,"male",7,"tpl","prpt",0,0,1122,1122,1122,"apple","",1,NA,"","","","","",1,1122,NA,NA,"prpt",0,"","","","",NA,NA,NA,NA,NA,NA,NA,NA,NA,NA,NA,NA,NA,NA,NA,NA,"108"
"alexandra","24m2h",2024,6,22,15,3,27,2551,108,18,"male",8,"tpl","prpt",1,0,392,392,392,"bus","",1,NA,"","","","","",1,392,NA,392,"prpt",1,"1","","","",NA,NA,NA,NA,NA,NA,NA,NA,NA,NA,NA,NA,NA,NA,NA,NA,"108"
"alexandra","24m2h",2024,6,22,15,3,31,2551,108,18,"male",9,"tpl","prpt",1,0,1664,1664,1664,"apple","",1,NA,"","","","","",1,1664,NA,1664,"prpt",1,"1","","","",NA,NA,NA,NA,NA,NA,NA,NA,NA,NA,NA,NA,NA,NA,NA,NA,"108"
"alexandra","24m2h",2024,6,22,15,3,37,2551,108,18,"male",10,"tpl","prpt",0,0,1908,1908,1908,"flower","",1,NA,"","","","","",1,1908,NA,NA,"prpt",0,"","","","",NA,NA,NA,NA,NA,NA,NA,NA,NA,NA,NA,NA,NA,NA,NA,NA,"108"
"alexandra","24m2h",2024,6,22,15,3,45,2551,108,18,"male",11,"tpl","inhb",1,0,1441,1441,1441,"elephant","",1,NA,"","","","","",1,1441,NA,NA,"inhb",1,"","1","","",1441,NA,NA,NA,NA,NA,NA,NA,NA,NA,NA,NA,NA,NA,NA,NA,"108"
"alexandra","24m2h",2024,6,22,15,3,50,2551,108,18,"male",12,"tpl","prpt",0,0,1482,1482,1482,"elephant2","",1,NA,"","","","","",1,1482,NA,NA,"prpt",0,"","","","",NA,NA,NA,NA,NA,NA,NA,NA,NA,NA,NA,NA,NA,NA,NA,NA,"108"
"alexandra","24m2h",2024,6,22,15,3,58,2551,108,18,"male",13,"tpl","prpt",1,0,6717,6717,6717,"apple","",1,NA,"","","","","",0,6717,NA,NA,"prpt",1,"1","","","",NA,NA,NA,NA,NA,NA,NA,NA,NA,NA,NA,NA,NA,NA,NA,NA,"108"
"alexandra","24m2h",2024,6,22,15,4,9,2551,108,18,"male",14,"tpl","prpt",0,0,16828,16829,16829,"owl","",1,NA,"","","","","",0,16829,NA,NA,"prpt",0,"","","","",NA,NA,NA,NA,NA,NA,NA,NA,NA,NA,NA,NA,NA,NA,NA,NA,"108"
"alexandra","24m2h",2024,6,22,15,4,30,2551,108,18,"male",15,"tpl","prpt",1,0,1472,1472,1472,"elephant2","",1,NA,"","","","","",1,1472,NA,1472,"prpt",1,"1","","","",NA,NA,NA,NA,NA,NA,NA,NA,NA,NA,NA,NA,NA,NA,NA,NA,"108"
"alexandra","24m2h",2024,6,22,15,4,36,2551,108,18,"male",16,"tpl","inhb",1,0,1931,1931,1931,"apple","",1,NA,"","","","","",1,1931,NA,NA,"inhb",1,"","1","","",1931,NA,NA,NA,NA,NA,NA,NA,NA,NA,NA,NA,NA,NA,NA,NA,"108"
"alexandra","24m2h",2024,6,22,15,4,42,2551,108,18,"male",17,"tpl","inhb",1,0,2890,4957,4957,"elephant2","",1,NA,"","","","","",1,4957,NA,NA,"inhb",1,"","1","","",4957,NA,NA,NA,NA,NA,NA,NA,NA,NA,NA,NA,NA,NA,NA,NA,"108"
"alexandra","24m2h",2024,6,22,15,4,51,2551,108,18,"male",18,"tpl","prpt",1,0,2722,2723,2723,"apple","",1,NA,"","","","","",1,2723,NA,2723,"prpt",1,"1","","","",NA,NA,NA,NA,NA,NA,NA,NA,NA,NA,NA,NA,NA,NA,NA,NA,"108"
"alexandra","24m2h",2024,6,22,15,4,58,2551,108,18,"male",19,"tpl","prpt",1,0,1797,1797,1797,"elephant2","",1,NA,"","","","","",1,1797,NA,1797,"prpt",1,"1","","","",NA,NA,NA,NA,NA,NA,NA,NA,NA,NA,NA,NA,NA,NA,NA,NA,"108"
"alexandra","24m2h",2024,6,22,15,5,4,2551,108,18,"male",20,"tpl","prpt",0,0,25414,25414,25414,"owl","",1,"9","","","","","",0,25414,NA,NA,"prpt",0,"","","","",NA,NA,NA,NA,NA,NA,NA,NA,NA,NA,NA,NA,NA,NA,NA,NA,"108"
"alexandra","24m2h",2024,6,22,15,5,37,2551,108,18,"male",21,"tpl","inhb",0,0,1465,1465,1465,"flower","",1,NA,"","","","","",1,1465,NA,NA,"inhb",0,"","","","",NA,NA,NA,NA,NA,NA,NA,NA,NA,NA,NA,NA,NA,NA,NA,NA,"108"
"alexandra","24m2h",2024,6,22,15,5,45,2551,108,18,"male",22,"tpl","prpt",0,0,1448,1449,1449,"apple","",1,NA,"","","","","",1,1449,NA,NA,"prpt",0,"","","","",NA,NA,NA,NA,NA,NA,NA,NA,NA,NA,NA,NA,NA,NA,NA,NA,"108"
"alexandra","24m2h",2024,6,22,15,5,54,2551,108,18,"male",23,"tpl","prpt",1,0,7989,7989,7989,"apple","",1,NA,"","","","","",0,7989,NA,NA,"prpt",1,"1","","","",NA,NA,NA,NA,NA,NA,NA,NA,NA,NA,NA,NA,NA,NA,NA,NA,"108"
"alexandra","24m2h",2024,6,22,15,6,6,2551,108,18,"male",24,"tpl","prpt",1,0,3473,3473,3473,"elephant","",1,NA,"","","","","",1,3473,NA,3473,"prpt",1,"1","","","",NA,NA,NA,NA,NA,NA,NA,NA,NA,NA,NA,NA,NA,NA,NA,NA,"108"
"alexandra","24m2h",2024,6,22,15,6,14,2551,108,18,"male",25,"tpl","prpt",1,0,2726,2726,2726,"elephant4","",1,NA,"","","","","",1,2726,NA,2726,"prpt",1,"1","","","",NA,NA,NA,NA,NA,NA,NA,NA,NA,NA,NA,NA,NA,NA,NA,NA,"108"
"alexandra","24m2h",2024,6,22,15,6,21,2551,108,18,"male",26,"tpl","prpt",1,0,2055,2056,2056,"elephant4","",1,NA,"","","","","",1,2056,NA,2056,"prpt",1,"1","","","",NA,NA,NA,NA,NA,NA,NA,NA,NA,NA,NA,NA,NA,NA,NA,NA,"108"
"alexandra","24m2h",2024,6,22,15,6,27,2551,108,18,"male",27,"tpl","inhb",0,0,1632,2014,2014,"elephant","",1,NA,"","","","","",1,2014,NA,NA,"inhb",0,"","","","",NA,NA,NA,NA,NA,NA,NA,NA,NA,NA,NA,NA,NA,NA,NA,NA,"108"
"alexandra","24m2h",2024,6,22,15,6,34,2551,108,18,"male",28,"tpl","prpt",0,0,1190,1679,1679,"flower","",1,NA,"","","","","",1,1679,NA,NA,"prpt",0,"","","","",NA,NA,NA,NA,NA,NA,NA,NA,NA,NA,NA,NA,NA,NA,NA,NA,"108"
"alexandra","24m2h",2024,6,22,15,6,41,2551,108,18,"male",29,"tpl","prpt",1,0,989,1015,1015,"flower","",1,NA,"","","","","",1,1015,NA,1015,"prpt",1,"1","","","",NA,NA,NA,NA,NA,NA,NA,NA,NA,NA,NA,NA,NA,NA,NA,NA,"108"
"alexandra","24m2h",2024,6,22,15,6,47,2551,108,18,"male",30,"tpl","prpt",1,0,692,1032,1032,"apple","",1,NA,"","","","","",1,1032,NA,1032,"prpt",1,"1","","","",NA,NA,NA,NA,NA,NA,NA,NA,NA,NA,NA,NA,NA,NA,NA,NA,"108"
"alexandra","24m2h",2024,6,22,15,6,52,2551,108,18,"male",31,"tpl","inhb",1,0,7574,7574,7574,"apple","",1,NA,"","","","","",0,7574,NA,NA,"inhb",1,"","1","","",NA,NA,NA,NA,NA,NA,NA,NA,NA,NA,NA,NA,NA,NA,NA,NA,"108"
"alexandra","24m2h",2024,6,22,15,7,4,2551,108,18,"male",32,"tpl","prpt",0,0,267,433,433,"elephant4","",1,NA,"","","","","",1,433,NA,NA,"prpt",0,"","","","",NA,NA,NA,NA,NA,NA,NA,NA,NA,NA,NA,NA,NA,NA,NA,NA,"108"
"alexandra","24m2h",2024,6,20,21,45,21,2548,109,19,"male",1,"prl","",1,0,30431,30432,30432,"apple","left",1,NA,"none","none","none","none","none",0,30432,NA,NA,"",1,"","",NA,"none",NA,"AP",NA,NA,NA,NA,NA,NA,NA,NA,NA,NA,NA,NA,NA,NA,"109"
"alexandra","24m2h",2024,6,20,21,45,57,2548,109,19,"male",1,"prl","",1,0,4892,4923,4923,"owl","",1,NA,"","","","","",1,4923,NA,NA,"",1,"","",NA,"",NA,"",NA,NA,NA,NA,NA,NA,NA,NA,NA,NA,NA,NA,NA,NA,"109"
"alexandra","24m2h",2024,6,20,21,46,6,2548,109,19,"male",1,"tpl","prpt",0,0,1950,1951,1951,"elephant2","",1,NA,"","","","","",1,1951,NA,NA,"prpt",0,"","",NA,"",NA,"",NA,NA,NA,NA,NA,NA,NA,NA,NA,NA,NA,NA,NA,NA,"109"
"alexandra","24m2h",2024,6,20,21,46,17,2548,109,19,"male",2,"tpl","prpt",1,0,1160,1175,1175,"elephant","",1,NA,"","","","","",1,1175,NA,1175,"prpt",1,"1","",NA,"",NA,"",NA,NA,NA,NA,NA,NA,NA,NA,NA,NA,NA,NA,NA,NA,"109"
"alexandra","24m2h",2024,6,20,21,46,22,2548,109,19,"male",3,"tpl","prpt",1,0,2069,2069,2069,"owl","",1,NA,"","","","","",1,2069,NA,2069,"prpt",1,"1","",NA,"",NA,"",NA,NA,NA,NA,NA,NA,NA,NA,NA,NA,NA,NA,NA,NA,"109"
"alexandra","24m2h",2024,6,20,21,46,28,2548,109,19,"male",4,"tpl","inhb",0,0,1319,1319,1319,"bus","",1,NA,"","","","","",1,1319,NA,NA,"inhb",0,"","",NA,"",NA,"",NA,NA,NA,NA,NA,NA,NA,NA,NA,NA,NA,NA,NA,NA,"109"
"alexandra","24m2h",2024,6,20,21,46,41,2548,109,19,"male",5,"tpl","prpt",0,0,1824,2125,2125,"elephant4","",1,NA,"","","","","",1,2125,NA,NA,"prpt",0,"","",NA,"",NA,"",NA,NA,NA,NA,NA,NA,NA,NA,NA,NA,NA,NA,NA,NA,"109"
"alexandra","24m2h",2024,6,20,21,47,3,2548,109,19,"male",6,"tpl","prpt",1,0,674,1457,1457,"flower","",1,NA,"","","","","",1,1457,NA,1457,"prpt",1,"1","",NA,"",NA,"",NA,NA,NA,NA,NA,NA,NA,NA,NA,NA,NA,NA,NA,NA,"109"
"alexandra","24m2h",2024,6,20,21,47,9,2548,109,19,"male",7,"tpl","prpt",1,0,3815,3816,3816,"elephant4","",1,NA,"","","","","",1,3816,NA,3816,"prpt",1,"1","",NA,"",NA,"",NA,NA,NA,NA,NA,NA,NA,NA,NA,NA,NA,NA,NA,NA,"109"
"alexandra","24m2h",2024,6,20,21,47,17,2548,109,19,"male",8,"tpl","inhb",0,0,1848,2191,2191,"owl","",1,"9","","","","","",1,2191,NA,NA,"inhb",0,"","",NA,"",NA,"",NA,NA,NA,NA,NA,NA,NA,NA,NA,NA,NA,NA,NA,NA,"109"
"alexandra","24m2h",2024,6,20,21,47,30,2548,109,19,"male",9,"tpl","inhb",1,0,1853,2997,2997,"bus","",1,NA,"","","","","",1,2997,NA,NA,"inhb",1,"","1",NA,"",2997,"",NA,NA,NA,NA,NA,NA,NA,NA,NA,NA,NA,NA,NA,NA,"109"
"alexandra","24m2h",2024,6,20,21,47,37,2548,109,19,"male",10,"tpl","prpt",0,0,1542,1542,1542,"bus","",1,NA,"","","","","",1,1542,NA,NA,"prpt",0,"","",NA,"",NA,"",NA,NA,NA,NA,NA,NA,NA,NA,NA,NA,NA,NA,NA,NA,"109"
"alexandra","24m2h",2024,6,20,21,48,6,2548,109,19,"male",11,"tpl","prpt",1,0,2264,2265,2265,"elephant","",1,NA,"","","","","",1,2265,NA,2262,"prpt",1,"1","",NA,"",NA,"",NA,NA,NA,NA,NA,NA,NA,NA,NA,NA,NA,NA,NA,NA,"109"
"alexandra","24m2h",2024,6,20,21,48,12,2548,109,19,"male",12,"tpl","prpt",1,0,3587,3587,3587,"apple","",1,NA,"","","","","",1,3587,NA,3587,"prpt",1,"1","",NA,"",NA,"",NA,NA,NA,NA,NA,NA,NA,NA,NA,NA,NA,NA,NA,NA,"109"
"alexandra","24m2h",2024,6,20,21,48,20,2548,109,19,"male",13,"tpl","prpt",1,0,1553,1854,1854,"flower","",1,NA,"","","","","",1,1854,NA,1854,"prpt",1,"1","",NA,"",NA,"",NA,NA,NA,NA,NA,NA,NA,NA,NA,NA,NA,NA,NA,NA,"109"
"alexandra","24m2h",2024,6,20,21,48,26,2548,109,19,"male",14,"tpl","inhb",1,0,9855,9855,9855,"elephant","",1,NA,"","","","","",0,9855,NA,NA,"inhb",1,"","1",NA,"",9855,"",NA,NA,NA,NA,NA,NA,NA,NA,NA,NA,NA,NA,NA,NA,"109"
"alexandra","24m2h",2024,6,20,21,48,40,2548,109,19,"male",15,"tpl","prpt",0,0,2415,2756,2756,"elephant4","",1,NA,"","","","","",1,2756,NA,NA,"prpt",0,"","",NA,"",NA,"",NA,NA,NA,NA,NA,NA,NA,NA,NA,NA,NA,NA,NA,NA,"109"
"alexandra","24m2h",2024,6,20,21,49,0,2548,109,19,"male",16,"tpl","prpt",0,0,1248,1248,1248,"owl","",1,NA,"","","","","",1,1248,NA,NA,"prpt",0,"","",NA,"",NA,"",NA,NA,NA,NA,NA,NA,NA,NA,NA,NA,NA,NA,NA,NA,"109"
"alexandra","24m2h",2024,6,20,21,49,39,2548,109,19,"male",17,"tpl","inhb",1,0,1224,1224,1224,"bus","",1,NA,"","","","","",1,1224,NA,NA,"inhb",1,"","1",NA,"",1224,"",NA,NA,NA,NA,NA,NA,NA,NA,NA,NA,NA,NA,NA,NA,"109"
"alexandra","24m2h",2024,6,20,21,49,44,2548,109,19,"male",18,"tpl","prpt",0,0,1863,1864,1864,"elephant4","",1,NA,"","","","","",1,1864,NA,NA,"prpt",0,"","",NA,"",NA,"",NA,NA,NA,NA,NA,NA,NA,NA,NA,NA,NA,NA,NA,NA,"109"
"alexandra","24m2h",2024,6,20,21,50,11,2548,109,19,"male",19,"tpl","inhb",1,0,1287,1287,1287,"owl","",1,NA,"","","","","",1,1287,NA,NA,"inhb",1,"","1",NA,"",1287,"",NA,NA,NA,NA,NA,NA,NA,NA,NA,NA,NA,NA,NA,NA,"109"
"alexandra","24m2h",2024,6,20,21,50,16,2548,109,19,"male",20,"tpl","prpt",0,0,1339,1673,1673,"flower","",1,NA,"","","","","",1,1673,NA,NA,"prpt",0,"","",NA,"",NA,"",NA,NA,NA,NA,NA,NA,NA,NA,NA,NA,NA,NA,NA,NA,"109"
"alexandra","24m2h",2024,6,20,21,50,25,2548,109,19,"male",21,"tpl","prpt",0,0,1512,1805,1805,"elephant4","",1,NA,"","","","","",1,1805,NA,NA,"prpt",0,"","",NA,"",NA,"",NA,NA,NA,NA,NA,NA,NA,NA,NA,NA,NA,NA,NA,NA,"109"
"alexandra","24m2h",2024,6,20,21,50,34,2548,109,19,"male",22,"tpl","prpt",0,0,1213,1213,1213,"flower","",1,NA,"","","","","",1,1213,NA,NA,"prpt",0,"","",NA,"",NA,"",NA,NA,NA,NA,NA,NA,NA,NA,NA,NA,NA,NA,NA,NA,"109"
"alexandra","24m2h",2024,6,20,21,50,53,2548,109,19,"male",23,"tpl","prpt",1,0,1740,2039,2039,"apple","",1,NA,"","","","","",1,2039,NA,2039,"prpt",1,"1","",NA,"",NA,"",NA,NA,NA,NA,NA,NA,NA,NA,NA,NA,NA,NA,NA,NA,"109"
"alexandra","24m2h",2024,6,20,21,50,59,2548,109,19,"male",24,"tpl","prpt",1,0,1895,2196,2196,"owl","",1,NA,"","","","","",1,2196,NA,2196,"prpt",1,"1","",NA,"",NA,"",NA,NA,NA,NA,NA,NA,NA,NA,NA,NA,NA,NA,NA,NA,"109"
"alexandra","24m2h",2024,6,20,21,51,5,2548,109,19,"male",25,"tpl","inhb",0,0,5213,5566,5566,"flower","",1,NA,"","","","","",0,5566,NA,NA,"inhb",0,"","",NA,"",NA,"",NA,NA,NA,NA,NA,NA,NA,NA,NA,NA,NA,NA,NA,NA,"109"
"alexandra","24m2h",2024,6,20,21,51,18,2548,109,19,"male",26,"tpl","prpt",0,0,1520,1520,1520,"owl","",1,NA,"","","","","",1,1520,NA,NA,"prpt",0,"","",NA,"",NA,"",NA,NA,NA,NA,NA,NA,NA,NA,NA,NA,NA,NA,NA,NA,"109"
"alexandra","24m2h",2024,6,20,21,51,29,2548,109,19,"male",27,"tpl","inhb",1,0,1724,1724,1724,"elephant","",1,NA,"","","","","",1,1724,NA,NA,"inhb",1,"","1",NA,"",1724,"",NA,NA,NA,NA,NA,NA,NA,NA,NA,NA,NA,NA,NA,NA,"109"
"alexandra","24m2h",2024,6,20,21,51,35,2548,109,19,"male",28,"tpl","prpt",0,0,2060,2060,2060,"flower","",1,NA,"","","","","",1,2060,NA,NA,"prpt",0,"","",NA,"",NA,"",NA,NA,NA,NA,NA,NA,NA,NA,NA,NA,NA,NA,NA,NA,"109"
"alexandra","24m2h",2024,6,20,21,51,46,2548,109,19,"male",29,"tpl","prpt",0,0,1588,1588,1588,"elephant4","",1,NA,"","","","","",1,1588,NA,NA,"prpt",0,"","",NA,"",NA,"",NA,NA,NA,NA,NA,NA,NA,NA,NA,NA,NA,NA,NA,NA,"109"
"alexandra","24m2h",2024,6,20,21,51,53,2548,109,19,"male",30,"tpl","prpt",0,0,1579,1579,1579,"elephant","",1,NA,"","","","","",1,1579,NA,NA,"prpt",0,"","",NA,"",NA,"",NA,NA,NA,NA,NA,NA,NA,NA,NA,NA,NA,NA,NA,NA,"109"
"alexandra","24m2h",2024,6,20,21,52,4,2548,109,19,"male",31,"tpl","prpt",1,0,3200,3498,3498,"apple","",1,NA,"","","","","",1,3498,NA,3498,"prpt",1,"1","",NA,"",NA,"",NA,NA,NA,NA,NA,NA,NA,NA,NA,NA,NA,NA,NA,NA,"109"
"alexandra","24m2h",2024,6,20,21,52,12,2548,109,19,"male",32,"tpl","prpt",1,0,1691,1991,1991,"flower","",1,NA,"","","","","",1,1991,NA,1991,"prpt",1,"1","",NA,"",NA,"",NA,NA,NA,NA,NA,NA,NA,NA,NA,NA,NA,NA,NA,NA,"109"
"alexandra","24m2h",2024,7,5,13,0,45,2568,110,24,"male",1,"prr","",1,0,10364,10365,10365,"owl","right",1,NA,"none","none","none","none","none",0,10365,NA,NA,"",1,"","","AP","none",NA,NA,NA,NA,NA,NA,NA,NA,NA,NA,NA,NA,NA,NA,NA,NA,"110"
"alexandra","24m2h",2024,7,5,13,1,0,2568,110,24,"male",1,"prr","",1,0,1627,1627,1627,"bus","",1,NA,"","","","","",1,1627,NA,NA,"",1,"","","","",NA,NA,NA,NA,NA,NA,NA,NA,NA,NA,NA,NA,NA,NA,NA,NA,"110"
"alexandra","24m2h",2024,7,5,13,1,7,2568,110,24,"male",1,"prr","",1,0,1567,1567,1567,"flower","",1,NA,"","","","","",1,1567,NA,NA,"",1,"","","","",NA,NA,NA,NA,NA,NA,NA,NA,NA,NA,NA,NA,NA,NA,NA,NA,"110"
"alexandra","24m2h",2024,7,5,13,1,16,2568,110,24,"male",1,"prr","",1,0,2670,2670,2670,"elephant","",1,NA,"","","","","",1,2670,NA,NA,"",1,"","","","",NA,NA,NA,NA,NA,NA,NA,NA,NA,NA,NA,NA,NA,NA,NA,NA,"110"
"alexandra","24m2h",2024,7,5,13,1,27,2568,110,24,"male",1,"prr","",1,0,4072,4072,4072,"elephant4","",1,NA,"","","","","",1,4072,NA,NA,"",1,"","","","",NA,NA,NA,NA,NA,NA,NA,NA,NA,NA,NA,NA,NA,NA,NA,NA,"110"
"alexandra","24m2h",2024,7,5,13,1,37,2568,110,24,"male",1,"prr","",1,0,2411,2412,2412,"elephant","",1,NA,"","","","","",1,2412,NA,NA,"",1,"","","","",NA,NA,NA,NA,NA,NA,NA,NA,NA,NA,NA,NA,NA,NA,NA,NA,"110"
"alexandra","24m2h",2024,7,5,13,1,45,2568,110,24,"male",1,"prr","",1,0,1638,1638,1638,"bus","",1,NA,"","","","","",1,1638,NA,NA,"",1,"","","","",NA,NA,NA,NA,NA,NA,NA,NA,NA,NA,NA,NA,NA,NA,NA,NA,"110"
"alexandra","24m2h",2024,7,5,13,1,51,2568,110,24,"male",1,"prr","",1,0,15557,16290,16290,"bus","",1,NA,"","","","","",0,16290,NA,NA,"",1,"","","","",NA,NA,NA,NA,NA,NA,NA,NA,NA,NA,NA,NA,NA,NA,NA,NA,"110"
"alexandra","24m2h",2024,7,5,13,2,13,2568,110,24,"male",1,"prr","",1,0,6867,6867,6867,"elephant2","",1,NA,"","","","","",0,6867,NA,NA,"",1,"","","","",NA,NA,NA,NA,NA,NA,NA,NA,NA,NA,NA,NA,NA,NA,NA,NA,"110"
"alexandra","24m2h",2024,7,5,13,2,24,2568,110,24,"male",1,"tpr","prpt",1,0,2047,2047,2047,"owl","",1,NA,"","","","","",1,2047,NA,2067,"prpt",1,"1","","","",NA,NA,NA,NA,NA,NA,NA,NA,NA,NA,NA,NA,NA,NA,NA,NA,"110"
"alexandra","24m2h",2024,7,5,13,2,30,2568,110,24,"male",2,"tpr","prpt",1,0,1316,1316,1316,"owl","",1,NA,"","","","","",1,1316,NA,1316,"prpt",1,"1","","","",NA,NA,NA,NA,NA,NA,NA,NA,NA,NA,NA,NA,NA,NA,NA,NA,"110"
"alexandra","24m2h",2024,7,5,13,2,36,2568,110,24,"male",3,"tpr","prpt",1,0,1427,1428,1428,"elephant","",1,NA,"","","","","",1,1428,NA,1428,"prpt",1,"1","","","",NA,NA,NA,NA,NA,NA,NA,NA,NA,NA,NA,NA,NA,NA,NA,NA,"110"
"alexandra","24m2h",2024,7,5,13,2,41,2568,110,24,"male",4,"tpr","prpt",1,0,8404,8404,8404,"elephant","",1,NA,"","","","","",0,8404,NA,NA,"prpt",1,"1","","","",NA,NA,NA,NA,NA,NA,NA,NA,NA,NA,NA,NA,NA,NA,NA,NA,"110"
"alexandra","24m2h",2024,7,5,13,2,54,2568,110,24,"male",5,"tpr","prpt",1,0,3402,3402,3402,"owl","",1,"9","","","","","",1,3402,NA,NA,"prpt",1,"","","","",NA,NA,NA,NA,NA,NA,NA,NA,NA,NA,NA,NA,NA,NA,NA,NA,"110"
"alexandra","24m2h",2024,7,5,13,3,1,2568,110,24,"male",6,"tpr","inhb",0,0,2066,2066,2066,"flower","",1,NA,"","","","","",1,2066,NA,NA,"inhb",0,"","","","",NA,NA,NA,NA,NA,NA,NA,NA,NA,NA,NA,NA,NA,NA,NA,NA,"110"
"alexandra","24m2h",2024,7,5,13,3,20,2568,110,24,"male",7,"tpr","prpt",0,0,1485,1485,1485,"owl","",1,NA,"","","","","",1,1485,NA,NA,"prpt",0,"","","","",NA,NA,NA,NA,NA,NA,NA,NA,NA,NA,NA,NA,NA,NA,NA,NA,"110"
"alexandra","24m2h",2024,7,5,13,3,30,2568,110,24,"male",8,"tpr","prpt",0,0,1230,1231,1231,"apple","",1,NA,"","","","","",1,1231,NA,NA,"prpt",0,"","","","",NA,NA,NA,NA,NA,NA,NA,NA,NA,NA,NA,NA,NA,NA,NA,NA,"110"
"alexandra","24m2h",2024,7,5,13,3,40,2568,110,24,"male",9,"tpr","prpt",1,0,1321,1321,1321,"elephant4","",1,NA,"","","","","",1,1321,NA,1321,"prpt",1,"1","","","",NA,NA,NA,NA,NA,NA,NA,NA,NA,NA,NA,NA,NA,NA,NA,NA,"110"
"alexandra","24m2h",2024,7,5,13,3,46,2568,110,24,"male",10,"tpr","prpt",1,0,4583,4583,4583,"elephant2","",1,NA,"","","","","",1,4583,NA,4583,"prpt",1,"1","","","",NA,NA,NA,NA,NA,NA,NA,NA,NA,NA,NA,NA,NA,NA,NA,NA,"110"
"alexandra","24m2h",2024,7,5,13,3,55,2568,110,24,"male",11,"tpr","prpt",1,0,1783,1783,1783,"elephant","",1,NA,"","","","","",1,1783,NA,1783,"prpt",1,"1","","","",NA,NA,NA,NA,NA,NA,NA,NA,NA,NA,NA,NA,NA,NA,NA,NA,"110"
"alexandra","24m2h",2024,7,5,13,4,1,2568,110,24,"male",12,"tpr","inhb",0,0,1558,1558,1558,"apple","",1,NA,"","","","","",1,1558,NA,NA,"inhb",0,"","","","",NA,NA,NA,NA,NA,NA,NA,NA,NA,NA,NA,NA,NA,NA,NA,NA,"110"
"alexandra","24m2h",2024,7,5,13,4,42,2568,110,24,"male",13,"tpr","inhb",0,0,1344,1383,1383,"elephant","",1,NA,"","","","","",1,1383,NA,NA,"inhb",0,"","","","",NA,NA,NA,NA,NA,NA,NA,NA,NA,NA,NA,NA,NA,NA,NA,NA,"110"
"alexandra","24m2h",2024,7,5,13,4,52,2568,110,24,"male",14,"tpr","prpt",1,0,1414,1414,1414,"bus","",1,NA,"","","","","",1,1414,NA,1414,"prpt",1,"1","","","",NA,NA,NA,NA,NA,NA,NA,NA,NA,NA,NA,NA,NA,NA,NA,NA,"110"
"alexandra","24m2h",2024,7,5,13,4,57,2568,110,24,"male",15,"tpr","prpt",1,0,1793,1794,1794,"flower","",1,NA,"","","","","",1,1794,NA,1794,"prpt",1,"1","","","",NA,NA,NA,NA,NA,NA,NA,NA,NA,NA,NA,NA,NA,NA,NA,NA,"110"
"alexandra","24m2h",2024,7,5,13,5,3,2568,110,24,"male",16,"tpr","prpt",1,0,52,611,611,"elephant","",1,NA,"","","","","",1,611,NA,611,"prpt",1,"1","","","",NA,NA,NA,NA,NA,NA,NA,NA,NA,NA,NA,NA,NA,NA,NA,NA,"110"
"alexandra","24m2h",2024,7,5,13,5,8,2568,110,24,"male",17,"tpr","prpt",0,0,1013,1045,1045,"elephant","",1,NA,"","","","","",1,1045,NA,NA,"prpt",0,"","","","",NA,NA,NA,NA,NA,NA,NA,NA,NA,NA,NA,NA,NA,NA,NA,NA,"110"
"alexandra","24m2h",2024,7,5,13,5,16,2568,110,24,"male",18,"tpr","inhb",0,0,334,335,335,"elephant2","",1,NA,"","","","","",1,335,NA,NA,"inhb",0,"","","","",NA,NA,NA,NA,NA,NA,NA,NA,NA,NA,NA,NA,NA,NA,NA,NA,"110"
"alexandra","24m2h",2024,7,5,13,5,24,2568,110,24,"male",19,"tpr","prpt",1,0,1098,1098,1098,"owl","",1,NA,"","","","","",1,1098,NA,1098,"prpt",1,"1","","","",NA,NA,NA,NA,NA,NA,NA,NA,NA,NA,NA,NA,NA,NA,NA,NA,"110"
"alexandra","24m2h",2024,7,5,13,5,29,2568,110,24,"male",20,"tpr","prpt",0,0,1203,1252,1252,"owl","",1,NA,"","","","","",1,1252,NA,NA,"prpt",0,"","","","",NA,NA,NA,NA,NA,NA,NA,NA,NA,NA,NA,NA,NA,NA,NA,NA,"110"
"alexandra","24m2h",2024,7,5,13,5,35,2568,110,24,"male",21,"tpr","inhb",0,0,1133,1157,1157,"elephant","",1,NA,"","","","","",1,1157,NA,NA,"inhb",0,"","","","",NA,NA,NA,NA,NA,NA,NA,NA,NA,NA,NA,NA,NA,NA,NA,NA,"110"
"alexandra","24m2h",2024,7,5,13,5,55,2568,110,24,"male",22,"tpr","prpt",1,0,883,884,884,"elephant2","",1,NA,"","","","","",1,884,NA,884,"prpt",1,"1","","","",NA,NA,NA,NA,NA,NA,NA,NA,NA,NA,NA,NA,NA,NA,NA,NA,"110"
"alexandra","24m2h",2024,7,5,13,6,0,2568,110,24,"male",23,"tpr","inhb",0,0,4201,4216,4216,"elephant2","",1,NA,"","","","","",1,4216,NA,NA,"inhb",0,"","","","",NA,NA,NA,NA,NA,NA,NA,NA,NA,NA,NA,NA,NA,NA,NA,NA,"110"
"alexandra","24m2h",2024,7,5,13,6,11,2568,110,24,"male",24,"tpr","prpt",0,0,1283,1308,1308,"flower","",1,NA,"","","","","",1,1308,NA,NA,"prpt",0,"","","","",NA,NA,NA,NA,NA,NA,NA,NA,NA,NA,NA,NA,NA,NA,NA,NA,"110"
"alexandra","24m2h",2024,7,5,13,6,19,2568,110,24,"male",25,"tpr","prpt",1,0,1641,1641,1641,"flower","",1,NA,"","","","","",1,1641,NA,1641,"prpt",1,"1","","","",NA,NA,NA,NA,NA,NA,NA,NA,NA,NA,NA,NA,NA,NA,NA,NA,"110"
"alexandra","24m2h",2024,7,5,13,6,25,2568,110,24,"male",26,"tpr","prpt",1,0,2186,2187,2187,"owl","",1,NA,"","","","","",1,2187,NA,2187,"prpt",1,"1","","","",NA,NA,NA,NA,NA,NA,NA,NA,NA,NA,NA,NA,NA,NA,NA,NA,"110"
"alexandra","24m2h",2024,7,5,13,6,31,2568,110,24,"male",27,"tpr","prpt",0,0,2980,4531,4531,"elephant4","",1,NA,"","","","","",1,4531,NA,NA,"prpt",0,"","","","",NA,NA,NA,NA,NA,NA,NA,NA,NA,NA,NA,NA,NA,NA,NA,NA,"110"
"alexandra","24m2h",2024,7,5,13,6,41,2568,110,24,"male",28,"tpr","inhb",1,0,735,735,735,"elephant","",1,NA,"","","","","",1,735,735,NA,"inhb",1,"","1","","",NA,NA,NA,NA,NA,NA,NA,NA,NA,NA,NA,NA,NA,NA,NA,NA,"110"
"alexandra","24m2h",2024,7,5,13,6,46,2568,110,24,"male",29,"tpr","inhb",0,0,1452,1452,1452,"owl","",1,NA,"","","","","",1,1452,NA,NA,"inhb",0,"","","","",NA,NA,NA,NA,NA,NA,NA,NA,NA,NA,NA,NA,NA,NA,NA,NA,"110"
"alexandra","24m2h",2024,7,5,13,6,54,2568,110,24,"male",30,"tpr","prpt",1,0,2766,2766,2766,"elephant4","",1,NA,"","","","","",1,2766,NA,2766,"prpt",1,"1","","","",NA,NA,NA,NA,NA,NA,NA,NA,NA,NA,NA,NA,NA,NA,NA,NA,"110"
"alexandra","24m2h",2024,7,5,13,7,1,2568,110,24,"male",31,"tpr","prpt",0,0,3108,3123,3123,"owl","",1,NA,"","","","","",1,3123,NA,NA,"prpt",0,"","","","",NA,NA,NA,NA,NA,NA,NA,NA,NA,NA,NA,NA,NA,NA,NA,NA,"110"
"alexandra","24m2h",2024,7,5,13,7,10,2568,110,24,"male",32,"tpr","prpt",1,0,1635,1635,1635,"owl","",1,NA,"","","","","",1,1635,NA,1635,"prpt",1,"1","","","",NA,NA,NA,NA,NA,NA,NA,NA,NA,NA,NA,NA,NA,NA,NA,NA,"110"
"alexandra","24m2h",2024,7,18,21,4,28,2604,111,21,"male",1,"prr","",1,0,14566,14567,14567,"apple","right",1,NA,"no",NA,"none",NA,"none",0,14567,NA,NA,"",1,"","","AP",NA,NA,NA,NA,NA,NA,NA,NA,NA,NA,NA,NA,NA,NA,NA,NA,NA,"111"
"alexandra","24m2h",2024,7,18,21,4,47,2604,111,21,"male",1,"prr","",1,0,9145,9145,9145,"elephant4","",1,NA,"",NA,"",NA,"",0,9145,NA,NA,"",1,"","","",NA,NA,NA,NA,NA,NA,NA,NA,NA,NA,NA,NA,NA,NA,NA,NA,NA,"111"
"alexandra","24m2h",2024,7,18,21,5,1,2604,111,21,"male",1,"prr","",1,0,1803,1803,1803,"elephant2","",1,NA,"",NA,"",NA,"",1,1803,NA,NA,"",1,"","","",NA,NA,NA,NA,NA,NA,NA,NA,NA,NA,NA,NA,NA,NA,NA,NA,NA,"111"
"alexandra","24m2h",2024,7,18,21,5,7,2604,111,21,"male",1,"prr","",1,0,22364,22364,22364,"owl","",1,NA,"",NA,"",NA,"",0,22364,NA,NA,"",1,"","","",NA,NA,NA,NA,NA,NA,NA,NA,NA,NA,NA,NA,NA,NA,NA,NA,NA,"111"
"alexandra","24m2h",2024,7,18,21,5,33,2604,111,21,"male",1,"prr","",1,0,1404,1404,1404,"elephant","",1,NA,"",NA,"",NA,"",1,1404,NA,NA,"",1,"","","",NA,NA,NA,NA,NA,NA,NA,NA,NA,NA,NA,NA,NA,NA,NA,NA,NA,"111"
"alexandra","24m2h",2024,7,18,21,18,12,2604,111,21,"male",1,"prr","",1,0,4427,4427,4427,"bus","",1,NA,"",NA,"",NA,"",1,4427,NA,NA,"",1,"","","",NA,NA,NA,NA,NA,NA,NA,NA,NA,NA,NA,NA,NA,NA,NA,NA,NA,"111"
"alexandra","24m2h",2024,7,18,21,18,20,2604,111,21,"male",1,"prr","",1,0,7826,7827,7827,"elephant4","",1,NA,"",NA,"",NA,"",0,7827,NA,NA,"",1,"","","",NA,NA,NA,NA,NA,NA,NA,NA,NA,NA,NA,NA,NA,NA,NA,NA,NA,"111"
"alexandra","24m2h",2024,7,18,21,18,33,2604,111,21,"male",1,"prr","",1,0,11356,11356,11356,"bus","",1,NA,"",NA,"",NA,"",0,11356,NA,NA,"",1,"","","",NA,NA,NA,NA,NA,NA,NA,NA,NA,NA,NA,NA,NA,NA,NA,NA,NA,"111"
"alexandra","24m2h",2024,7,18,21,18,48,2604,111,21,"male",1,"prr","",1,0,4925,8586,8586,"elephant2","",1,NA,"",NA,"",NA,"",0,8586,NA,NA,"",1,"","","",NA,NA,NA,NA,NA,NA,NA,NA,NA,NA,NA,NA,NA,NA,NA,NA,NA,"111"
"alexandra","24m2h",2024,7,18,21,19,1,2604,111,21,"male",1,"prr","",1,0,2766,2854,2854,"apple","",1,NA,"",NA,"",NA,"",1,2854,NA,NA,"",1,"","","",NA,NA,NA,NA,NA,NA,NA,NA,NA,NA,NA,NA,NA,NA,NA,NA,NA,"111"
"alexandra","24m2h",2024,7,18,21,19,8,2604,111,21,"male",1,"tpr","prpt",1,0,3360,3360,3360,"bus","",1,NA,"",NA,"",NA,"",1,3360,NA,3360," ",1,"1","","",NA,NA,NA,NA,NA,NA,NA,NA,NA,NA,NA,NA,NA,NA,NA,NA,NA,"111"
"alexandra","24m2h",2024,7,18,21,19,16,2604,111,21,"male",2,"tpr","prpt",1,0,1749,1749,1749,"apple","",1,NA,"",NA,"",NA,"",1,1749,NA,1749,"prpt",1,"1","","",NA,NA,NA,NA,NA,NA,NA,NA,NA,NA,NA,NA,NA,NA,NA,NA,NA,"111"
"alexandra","24m2h",2024,7,18,21,19,22,2604,111,21,"male",3,"tpr","prpt",1,0,1247,1247,1247,"elephant2","",1,NA,"",NA,"",NA,"",1,1247,NA,1247,"prpt",1,"1","","",NA,NA,NA,NA,NA,NA,NA,NA,NA,NA,NA,NA,NA,NA,NA,NA,NA,"111"
"alexandra","24m2h",2024,7,18,21,19,27,2604,111,21,"male",4,"tpr","prpt",1,0,1469,1469,1469,"owl","",1,NA,"",NA,"",NA,"",1,1469,NA,1469,"prpt",1,"1","","",NA,NA,NA,NA,NA,NA,NA,NA,NA,NA,NA,NA,NA,NA,NA,NA,NA,"111"
"alexandra","24m2h",2024,7,18,21,19,33,2604,111,21,"male",5,"tpr","inhb",0,0,1652,1652,1652,"elephant","",1,NA,"",NA,"",NA,"",1,1652,NA,NA,"inhb",0,"","","",NA,NA,NA,NA,NA,NA,NA,NA,NA,NA,NA,NA,NA,NA,NA,NA,NA,"111"
"alexandra","24m2h",2024,7,18,21,19,40,2604,111,21,"male",6,"tpr","prpt",1,0,1307,1674,1674,"owl","",1,NA,"",NA,"",NA,"",1,1674,NA,1674,"prpt",1,"1","","",NA,NA,NA,NA,NA,NA,NA,NA,NA,NA,NA,NA,NA,NA,NA,NA,NA,"111"
"alexandra","24m2h",2024,7,18,21,19,45,2604,111,21,"male",7,"tpr","prpt",1,0,1286,1287,1287,"bus","",1,NA,"",NA,"",NA,"",1,1287,NA,1287,"prpt",1,"1","","",NA,NA,NA,NA,NA,NA,NA,NA,NA,NA,NA,NA,NA,NA,NA,NA,NA,"111"
"alexandra","24m2h",2024,7,18,21,19,51,2604,111,21,"male",8,"tpr","prpt",1,0,1438,1439,1439,"bus","",1,NA,"",NA,"",NA,"",1,1439,NA,1439,"prpt",1,"1","","",NA,NA,NA,NA,NA,NA,NA,NA,NA,NA,NA,NA,NA,NA,NA,NA,NA,"111"
"alexandra","24m2h",2024,7,18,21,19,57,2604,111,21,"male",9,"tpr","inhb",0,0,1222,1222,1222,"elephant2","",1,NA,"",NA,"",NA,"",1,1222,NA,NA,"inhb",0,"","","",NA,NA,NA,NA,NA,NA,NA,NA,NA,NA,NA,NA,NA,NA,NA,NA,NA,"111"
"alexandra","24m2h",2024,7,18,21,20,4,2604,111,21,"male",10,"tpr","prpt",1,0,1398,1398,1398,"flower","",1,NA,"",NA,"",NA,"",1,1398,NA,1398,"prpt",1,"1","","",NA,NA,NA,NA,NA,NA,NA,NA,NA,NA,NA,NA,NA,NA,NA,NA,NA,"111"
"alexandra","24m2h",2024,7,18,21,20,9,2604,111,21,"male",11,"tpr","prpt",1,0,1263,1264,1264,"flower","",1,NA,"",NA,"",NA,"",1,1264,NA,1264,"prpt",1,"1","","",NA,NA,NA,NA,NA,NA,NA,NA,NA,NA,NA,NA,NA,NA,NA,NA,NA,"111"
"alexandra","24m2h",2024,7,18,21,20,15,2604,111,21,"male",12,"tpr","inhb",0,0,16,16,16,"elephant2","",0,"3","",NA,"",NA,"",1,16,NA,NA,"inhb",0,"","","",NA,NA,NA,NA,NA,NA,NA,NA,NA,NA,NA,NA,NA,NA,NA,NA,NA,"111"
"alexandra","24m2h",2024,7,18,21,20,28,2604,111,21,"male",13,"tpr","prpt",1,0,4448,4556,4556,"elephant2","",1,NA,"",NA,"",NA,"",1,4556,NA,4556,"prpt",1,"1","","",NA,NA,NA,NA,NA,NA,NA,NA,NA,NA,NA,NA,NA,NA,NA,NA,NA,"111"
"alexandra","24m2h",2024,7,18,21,20,37,2604,111,21,"male",14,"tpr","prpt",1,0,30532,30533,30533,"elephant4","",1,"9","",NA,"",NA,"",0,30533,NA,NA,"prpt",1,"","","",NA,NA,NA,NA,NA,NA,NA,NA,NA,NA,NA,NA,NA,NA,NA,NA,NA,"111"
"alexandra","24m2h",2024,7,18,21,21,11,2604,111,21,"male",15,"tpr","prpt",1,0,4319,4320,4320,"owl","",1,NA,"",NA,"",NA,"",1,4320,NA,4320,"prpt",1,"1","","",NA,NA,NA,NA,NA,NA,NA,NA,NA,NA,NA,NA,NA,NA,NA,NA,NA,"111"
"alexandra","24m2h",2024,7,18,21,21,20,2604,111,21,"male",16,"tpr","prpt",1,0,1302,1302,1302,"apple","",1,NA,"",NA,"",NA,"",1,1302,NA,1302,"prpt",1,"1","","",NA,NA,NA,NA,NA,NA,NA,NA,NA,NA,NA,NA,NA,NA,NA,NA,NA,"111"
"alexandra","24m2h",2024,7,18,21,21,25,2604,111,21,"male",17,"tpr","prpt",1,0,1025,1025,1025,"owl","",1,NA,"",NA,"",NA,"",1,1025,NA,1025,"prpt",1,"1","","",NA,NA,NA,NA,NA,NA,NA,NA,NA,NA,NA,NA,NA,NA,NA,NA,NA,"111"
"alexandra","24m2h",2024,7,18,21,21,30,2604,111,21,"male",18,"tpr","inhb",0,0,1694,1694,1694,"owl","",1,NA,"",NA,"",NA,"",1,1694,NA,NA,"inhb",0,"","","",NA,NA,NA,NA,NA,NA,NA,NA,NA,NA,NA,NA,NA,NA,NA,NA,NA,"111"
"alexandra","24m2h",2024,7,18,21,21,37,2604,111,21,"male",19,"tpr","prpt",1,0,2778,2778,2778,"elephant2","",1,NA,"",NA,"",NA,"",1,2778,NA,2778,"prpt",1,"1","","",NA,NA,NA,NA,NA,NA,NA,NA,NA,NA,NA,NA,NA,NA,NA,NA,NA,"111"
"alexandra","24m2h",2024,7,18,21,21,44,2604,111,21,"male",20,"tpr","prpt",1,0,1416,1416,1416,"owl","",1,NA,"",NA,"",NA,"",1,1416,NA,1416,"prpt",1,"1","","",NA,NA,NA,NA,NA,NA,NA,NA,NA,NA,NA,NA,NA,NA,NA,NA,NA,"111"
"alexandra","24m2h",2024,7,18,21,21,50,2604,111,21,"male",21,"tpr","prpt",1,0,1278,1278,1278,"elephant2","",1,NA,"",NA,"",NA,"",1,1278,NA,1278,"prpt",1,"1","","",NA,NA,NA,NA,NA,NA,NA,NA,NA,NA,NA,NA,NA,NA,NA,NA,NA,"111"
"alexandra","24m2h",2024,7,18,21,21,55,2604,111,21,"male",22,"tpr","prpt",1,0,2599,2599,2599,"flower","",1,NA,"",NA,"",NA,"",1,2599,NA,2599,"prpt",1,"1","","",NA,NA,NA,NA,NA,NA,NA,NA,NA,NA,NA,NA,NA,NA,NA,NA,NA,"111"
"alexandra","24m2h",2024,7,18,21,22,2,2604,111,21,"male",23,"tpr","inhb",0,0,266,266,266,"elephant2","",0,"3","",NA,"",NA,"",1,266,NA,NA,"inhb",0,"","","",NA,NA,NA,NA,NA,NA,NA,NA,NA,NA,NA,NA,NA,NA,NA,NA,NA,"111"
"alexandra","24m2h",2024,7,18,21,22,11,2604,111,21,"male",24,"tpr","prpt",1,0,42519,42519,42519,"owl","",1,"9","",NA,"",NA,"",0,42519,NA,NA,"prpt",1,"","","",NA,NA,NA,NA,NA,NA,NA,NA,NA,NA,NA,NA,NA,NA,NA,NA,NA,"111"
"alexandra","24m2h",2024,7,5,18,35,56,2569,112,23,"other",1,"prl","",1,0,34319,34319,34319,"owl","left",1,NA,"none","none","none","none","none",0,34319,NA,NA,"",1,"","","AP","none",NA,NA,NA,NA,NA,NA,NA,NA,NA,NA,NA,NA,NA,NA,NA,NA,"112"
"alexandra","24m2h",2024,7,5,18,36,35,2569,112,23,"other",1,"prl","",1,0,3938,3938,3938,"elephant2","",1,NA,"","","","","",1,3938,NA,NA,"",1,"","","","",NA,NA,NA,NA,NA,NA,NA,NA,NA,NA,NA,NA,NA,NA,NA,NA,"112"
"alexandra","24m2h",2024,7,5,18,36,44,2569,112,23,"other",1,"tpl","prpt",1,0,2072,2072,2072,"bus","",1,NA,"","","","","",1,2072,NA,2072,"prpt",1,"1","","","",NA,NA,NA,NA,NA,NA,NA,NA,NA,NA,NA,NA,NA,NA,NA,NA,"112"
"alexandra","24m2h",2024,7,5,18,36,50,2569,112,23,"other",2,"tpl","prpt",1,0,1532,1532,1532,"apple","",1,NA,"","","","","",1,1532,NA,1532,"prpt",1,"1","","","",NA,NA,NA,NA,NA,NA,NA,NA,NA,NA,NA,NA,NA,NA,NA,NA,"112"
"alexandra","24m2h",2024,7,5,18,36,56,2569,112,23,"other",3,"tpl","prpt",1,0,755,755,755,"elephant","",1,NA,"","","","","",1,755,NA,755,"prpt",1,"1","","","",NA,NA,NA,NA,NA,NA,NA,NA,NA,NA,NA,NA,NA,NA,NA,NA,"112"
"alexandra","24m2h",2024,7,5,18,37,1,2569,112,23,"other",4,"tpl","inhb",0,0,1977,1977,1977,"flower","",1,NA,"","","","","",1,1977,NA,NA,"inhb",0,"","","","",NA,NA,NA,NA,NA,NA,NA,NA,NA,NA,NA,NA,NA,NA,NA,NA,"112"
"alexandra","24m2h",2024,7,5,18,37,8,2569,112,23,"other",5,"tpl","prpt",1,0,1268,2602,2602,"elephant4","",1,NA,"","","","","",1,2602,NA,2602,"prpt",1,"1","","","",NA,NA,NA,NA,NA,NA,NA,NA,NA,NA,NA,NA,NA,NA,NA,NA,"112"
"alexandra","24m2h",2024,7,5,18,37,15,2569,112,23,"other",6,"tpl","prpt",1,0,1641,1641,1641,"apple","",1,NA,"","","","","",1,1641,NA,1641,"prpt",1,"1","","","",NA,NA,NA,NA,NA,NA,NA,NA,NA,NA,NA,NA,NA,NA,NA,NA,"112"
"alexandra","24m2h",2024,7,5,18,37,21,2569,112,23,"other",7,"tpl","prpt",1,0,127,127,127,"apple","",0,"3","","","","","",1,127,NA,NA,"prpt",1,"","","","",NA,NA,NA,NA,NA,NA,NA,NA,NA,NA,NA,NA,NA,NA,NA,NA,"112"
"alexandra","24m2h",2024,7,5,18,37,25,2569,112,23,"other",8,"tpl","prpt",0,0,7,1341,1341,"bus","",1,NA,"","","","","",1,1341,NA,NA,"prpt",0,"","","","",NA,NA,NA,NA,NA,NA,NA,NA,NA,NA,NA,NA,NA,NA,NA,NA,"112"
"alexandra","24m2h",2024,7,5,18,37,32,2569,112,23,"other",9,"tpl","inhb",0,0,1444,1444,1444,"bus","",1,NA,"","","","","",1,1444,NA,NA,"inhb",0,"","","","",NA,NA,NA,NA,NA,NA,NA,NA,NA,NA,NA,NA,NA,NA,NA,NA,"112"
"alexandra","24m2h",2024,7,5,18,37,45,2569,112,23,"other",10,"tpl","prpt",0,0,1433,1433,1433,"owl","",1,NA,"","","","","",1,1433,NA,NA,"prpt",0,"","","","",NA,NA,NA,NA,NA,NA,NA,NA,NA,NA,NA,NA,NA,NA,NA,NA,"112"
"alexandra","24m2h",2024,7,5,18,37,51,2569,112,23,"other",11,"tpl","prpt",1,0,1471,1471,1471,"elephant2","",1,NA,"","","","","",1,1471,NA,1471,"prpt",1,"1","","","",NA,NA,NA,NA,NA,NA,NA,NA,NA,NA,NA,NA,NA,NA,NA,NA,"112"
"alexandra","24m2h",2024,7,5,18,37,57,2569,112,23,"other",12,"tpl","prpt",1,0,1462,1462,1462,"flower","",1,NA,"","","","","",1,1462,NA,1462,"prpt",1,"1","","","",NA,NA,NA,NA,NA,NA,NA,NA,NA,NA,NA,NA,NA,NA,NA,NA,"112"
"alexandra","24m2h",2024,7,5,18,38,2,2569,112,23,"other",13,"tpl","prpt",1,0,242,951,951,"elephant2","",1,NA,"","","","","",1,951,NA,951,"prpt",1,"1","","","",NA,NA,NA,NA,NA,NA,NA,NA,NA,NA,NA,NA,NA,NA,NA,NA,"112"
"alexandra","24m2h",2024,7,5,18,38,8,2569,112,23,"other",14,"tpl","inhb",1,0,1313,1313,1313,"elephant","",1,NA,"","","","","",1,1313,NA,NA,"inhb",1,"","1","","",1313,NA,NA,NA,NA,NA,NA,NA,NA,NA,NA,NA,NA,NA,NA,NA,"112"
"alexandra","24m2h",2024,7,5,18,38,13,2569,112,23,"other",15,"tpl","prpt",0,0,1825,1825,1825,"apple","",1,NA,"","","","","",1,1825,NA,NA,"prpt",0,"","","","",NA,NA,NA,NA,NA,NA,NA,NA,NA,NA,NA,NA,NA,NA,NA,NA,"112"
"alexandra","24m2h",2024,7,5,18,38,20,2569,112,23,"other",16,"tpl","prpt",1,0,1568,1568,1568,"bus","",1,NA,"","","","","",1,1568,NA,1568,"prpt",1,"1","","","",NA,NA,NA,NA,NA,NA,NA,NA,NA,NA,NA,NA,NA,NA,NA,NA,"112"
"alexandra","24m2h",2024,7,5,18,38,26,2569,112,23,"other",17,"tpl","inhb",0,0,1301,1301,1301,"elephant","",1,NA,"","","","","",1,1301,NA,NA,"inhb",0,"","","","",NA,NA,NA,NA,NA,NA,NA,NA,NA,NA,NA,NA,NA,NA,NA,NA,"112"
"alexandra","24m2h",2024,7,5,18,38,32,2569,112,23,"other",18,"tpl","prpt",1,0,1602,1602,1602,"elephant4","",1,NA,"","","","","",1,1602,NA,1602,"prpt",1,"1","","","",NA,NA,NA,NA,NA,NA,NA,NA,NA,NA,NA,NA,NA,NA,NA,NA,"112"
"alexandra","24m2h",2024,7,5,18,38,38,2569,112,23,"other",19,"tpl","prpt",1,0,1065,1065,1065,"elephant4","",1,NA,"","","","","",1,1065,NA,1065,"prpt",1,"1","","","",NA,NA,NA,NA,NA,NA,NA,NA,NA,NA,NA,NA,NA,NA,NA,NA,"112"
"alexandra","24m2h",2024,7,5,18,38,43,2569,112,23,"other",20,"tpl","inhb",0,0,1336,1336,1336,"apple","",1,NA,"","","","","",1,1336,NA,NA,"inhb",0,"","","","",NA,NA,NA,NA,NA,NA,NA,NA,NA,NA,NA,NA,NA,NA,NA,NA,"112"
"alexandra","24m2h",2024,7,5,18,38,50,2569,112,23,"other",21,"tpl","prpt",1,0,6,1650,1650,"apple","",1,NA,"","","","","",1,1650,NA,1650,"prpt",1,"1","","","",NA,NA,NA,NA,NA,NA,NA,NA,NA,NA,NA,NA,NA,NA,NA,NA,"112"
"alexandra","24m2h",2024,7,5,18,38,56,2569,112,23,"other",22,"tpl","prpt",1,0,417,418,418,"flower","",1,NA,"","","","","",1,418,NA,418,"prpt",1,"1","","","",NA,NA,NA,NA,NA,NA,NA,NA,NA,NA,NA,NA,NA,NA,NA,NA,"112"
"alexandra","24m2h",2024,7,5,18,39,1,2569,112,23,"other",23,"tpl","prpt",1,0,1220,1220,1220,"owl","",1,NA,"","","","","",1,1220,NA,1220,"prpt",1,"1","","","",NA,NA,NA,NA,NA,NA,NA,NA,NA,NA,NA,NA,NA,NA,NA,NA,"112"
"alexandra","24m2h",2024,7,5,18,39,6,2569,112,23,"other",24,"tpl","inhb",0,0,1378,1379,1379,"flower","",1,NA,"","","","","",1,1379,NA,NA,"inhb",0,"","","","",NA,NA,NA,NA,NA,NA,NA,NA,NA,NA,NA,NA,NA,NA,NA,NA,"112"
"alexandra","24m2h",2024,7,5,18,39,12,2569,112,23,"other",25,"tpl","inhb",0,0,1601,1601,1601,"owl","",1,NA,"","","","","",1,1601,NA,NA,"inhb",0,"","","","",NA,NA,NA,NA,NA,NA,NA,NA,NA,NA,NA,NA,NA,NA,NA,NA,"112"
"alexandra","24m2h",2024,7,5,18,39,19,2569,112,23,"other",26,"tpl","prpt",1,0,1724,1725,1725,"elephant","",1,NA,"","","","","",1,1725,NA,1725,"prpt",1,"1","","","",NA,NA,NA,NA,NA,NA,NA,NA,NA,NA,NA,NA,NA,NA,NA,NA,"112"
"alexandra","24m2h",2024,7,5,18,39,24,2569,112,23,"other",27,"tpl","prpt",1,0,1768,1768,1768,"elephant2","",1,NA,"","","","","",1,1768,NA,1768,"prpt",1,"1","","","",NA,NA,NA,NA,NA,NA,NA,NA,NA,NA,NA,NA,NA,NA,NA,NA,"112"
"alexandra","24m2h",2024,7,5,18,39,30,2569,112,23,"other",28,"tpl","prpt",1,0,1488,1488,1488,"elephant","",1,NA,"","","","","",1,1488,NA,1488,"prpt",1,"1","","","",NA,NA,NA,NA,NA,NA,NA,NA,NA,NA,NA,NA,NA,NA,NA,NA,"112"
"alexandra","24m2h",2024,7,5,18,39,36,2569,112,23,"other",29,"tpl","inhb",1,0,1915,1915,1915,"elephant","",1,NA,"","","","","",1,1915,NA,NA,"inhb",1,"","1","","",1915,NA,NA,NA,NA,NA,NA,NA,NA,NA,NA,NA,NA,NA,NA,NA,"112"
"alexandra","24m2h",2024,7,5,18,39,42,2569,112,23,"other",30,"tpl","prpt",1,0,1604,1762,1762,"bus","",1,NA,"","","","","",1,1762,NA,1762,"prpt",1,"1","","","",NA,NA,NA,NA,NA,NA,NA,NA,NA,NA,NA,NA,NA,NA,NA,NA,"112"
"alexandra","24m2h",2024,7,5,18,39,48,2569,112,23,"other",31,"tpl","prpt",1,0,1265,1265,1265,"elephant4","",1,NA,"","","","","",1,1265,NA,1265,"prpt",1,"1","","","",NA,NA,NA,NA,NA,NA,NA,NA,NA,NA,NA,NA,NA,NA,NA,NA,"112"
"alexandra","24m2h",2024,7,5,18,39,54,2569,112,23,"other",32,"tpl","prpt",1,0,1169,1169,1169,"bus","",1,NA,"","","","","",1,1169,NA,1169,"prpt",1,"1","","","",NA,NA,NA,NA,NA,NA,NA,NA,NA,NA,NA,NA,NA,NA,NA,NA,"112"
"alexandra","24m2h",2024,7,6,14,48,34,2572,114,21,"female",1,"prr","",1,0,4598,4599,4599,"flower","left",1,"none","none","none","none","none","none",1,4599,NA,NA,"",1,"","","AP","none",NA,NA,NA,NA,NA,NA,NA,NA,NA,NA,NA,NA,NA,NA,NA,NA,"114"
"alexandra","24m2h",2024,7,6,14,48,43,2572,114,21,"female",1,"prr","",1,0,6137,6137,6137,"elephant","",1,"","","","","","",0,6137,NA,NA,"",1,"","","","",NA,NA,NA,NA,NA,NA,NA,NA,NA,NA,NA,NA,NA,NA,NA,NA,"114"
"alexandra","24m2h",2024,7,6,14,48,54,2572,114,21,"female",1,"tpr","prpt",1,0,1352,1352,1352,"elephant","",1,"","","","","","",1,1352,NA,1352,"prpt",1,"1","","","",NA,NA,NA,NA,NA,NA,NA,NA,NA,NA,NA,NA,NA,NA,NA,NA,"114"
"alexandra","24m2h",2024,7,6,14,48,59,2572,114,21,"female",2,"tpr","prpt",1,0,1504,1504,1504,"elephant4","",1,"","","","","","",1,1504,NA,1502,"prpt",1,"1","","","",NA,NA,NA,NA,NA,NA,NA,NA,NA,NA,NA,NA,NA,NA,NA,NA,"114"
"alexandra","24m2h",2024,7,6,14,49,5,2572,114,21,"female",3,"tpr","prpt",1,0,1302,1303,1303,"bus","",1,"","","","","","",1,1303,NA,1303,"prpt",1,"1","","","",NA,NA,NA,NA,NA,NA,NA,NA,NA,NA,NA,NA,NA,NA,NA,NA,"114"
"alexandra","24m2h",2024,7,6,14,49,10,2572,114,21,"female",4,"tpr","prpt",1,0,1222,1222,1222,"owl","",1,"","","","","","",1,1222,NA,1222,"prpt",1,"1","","","",NA,NA,NA,NA,NA,NA,NA,NA,NA,NA,NA,NA,NA,NA,NA,NA,"114"
"alexandra","24m2h",2024,7,6,14,49,15,2572,114,21,"female",5,"tpr","prpt",1,0,1459,1475,1475,"elephant4","",1,"","","","","","",1,1475,NA,1475,"prpt",1,"1","","","",NA,NA,NA,NA,NA,NA,NA,NA,NA,NA,NA,NA,NA,NA,NA,NA,"114"
"alexandra","24m2h",2024,7,6,14,49,21,2572,114,21,"female",6,"tpr","inhb",1,0,1571,1572,1572,"apple","",1,"","","","","","",1,1572,NA,NA,"inhb",1,"","1","","",1572,NA,NA,NA,NA,NA,NA,NA,NA,NA,NA,NA,NA,NA,NA,NA,"114"
"alexandra","24m2h",2024,7,6,14,49,27,2572,114,21,"female",7,"tpr","prpt",1,0,1068,1068,1068,"owl","",1,"","","","","","",1,1068,NA,1068,"prpt",1,"1","","","",NA,NA,NA,NA,NA,NA,NA,NA,NA,NA,NA,NA,NA,NA,NA,NA,"114"
"alexandra","24m2h",2024,7,6,14,49,32,2572,114,21,"female",8,"tpr","prpt",1,0,1362,1385,1385,"apple","",1,"","","","","","",1,1385,NA,1385,"prpt",1,"1","","","",NA,NA,NA,NA,NA,NA,NA,NA,NA,NA,NA,NA,NA,NA,NA,NA,"114"
"alexandra","24m2h",2024,7,6,14,49,38,2572,114,21,"female",9,"tpr","inhb",0,0,1660,1675,1675,"elephant2","",1,"","","","","","",1,1675,NA,NA,"inhb",0,"","","","",NA,NA,NA,NA,NA,NA,NA,NA,NA,NA,NA,NA,NA,NA,NA,NA,"114"
"alexandra","24m2h",2024,7,6,14,49,45,2572,114,21,"female",10,"tpr","prpt",1,0,1626,1626,1626,"elephant4","",1,"","","","","","",1,1626,NA,1626,"prpt",1,"1","","","",NA,NA,NA,NA,NA,NA,NA,NA,NA,NA,NA,NA,NA,NA,NA,NA,"114"
"alexandra","24m2h",2024,7,6,14,49,51,2572,114,21,"female",11,"tpr","prpt",1,0,1088,1937,1937,"owl","",1,"","","","","","",1,1937,NA,1937,"prpt",1,"1","","","",NA,NA,NA,NA,NA,NA,NA,NA,NA,NA,NA,NA,NA,NA,NA,NA,"114"
"alexandra","24m2h",2024,7,6,14,49,56,2572,114,21,"female",12,"tpr","prpt",1,0,1273,1274,1274,"elephant2","",1,"","","","","","",1,1274,NA,1274,"prpt",1,"1","","","",NA,NA,NA,NA,NA,NA,NA,NA,NA,NA,NA,NA,NA,NA,NA,NA,"114"
"alexandra","24m2h",2024,7,6,14,50,2,2572,114,21,"female",13,"tpr","prpt",1,0,1352,1384,1384,"owl","",1,"","","","","","",1,1384,NA,1384,"prpt",1,"1","","","",NA,NA,NA,NA,NA,NA,NA,NA,NA,NA,NA,NA,NA,NA,NA,NA,"114"
"alexandra","24m2h",2024,7,6,14,50,7,2572,114,21,"female",14,"tpr","prpt",1,0,1116,1140,1140,"bus","",1,"","","","","","",1,1140,NA,1140,"prpt",1,"1","","","",NA,NA,NA,NA,NA,NA,NA,NA,NA,NA,NA,NA,NA,NA,NA,NA,"114"
"alexandra","24m2h",2024,7,6,14,50,13,2572,114,21,"female",15,"tpr","inhb",1,0,1330,1330,1330,"elephant","",1,"","","","","","",1,1330,NA,NA,"inhb",1,"","1","","",1330,NA,NA,NA,NA,NA,NA,NA,NA,NA,NA,NA,NA,NA,NA,NA,"114"
"alexandra","24m2h",2024,7,6,14,50,18,2572,114,21,"female",16,"tpr","prpt",1,0,2677,2677,2677,"bus","",1,"","","","","","",1,2677,NA,2677,"prpt",1,"1","","","",NA,NA,NA,NA,NA,NA,NA,NA,NA,NA,NA,NA,NA,NA,NA,NA,"114"
"alexandra","24m2h",2024,7,6,14,50,25,2572,114,21,"female",17,"tpr","prpt",1,0,1093,1100,1100,"apple","",1,"","","","","","",1,1100,NA,1100,"prpt",1,"1","","","",NA,NA,NA,NA,NA,NA,NA,NA,NA,NA,NA,NA,NA,NA,NA,NA,"114"
"alexandra","24m2h",2024,7,6,14,50,30,2572,114,21,"female",18,"tpr","prpt",0,0,1480,1497,1497,"bus","",1,"","","","","","",1,1497,NA,NA,"prpt",0,"","","","",NA,NA,NA,NA,NA,NA,NA,NA,NA,NA,NA,NA,NA,NA,NA,NA,"114"
"alexandra","24m2h",2024,7,6,14,50,40,2572,114,21,"female",19,"tpr","prpt",1,0,2175,2199,2199,"owl","",1,"","","","","","",1,2199,NA,2199,"prpt",1,"1","","","",NA,NA,NA,NA,NA,NA,NA,NA,NA,NA,NA,NA,NA,NA,NA,NA,"114"
"alexandra","24m2h",2024,7,6,14,50,46,2572,114,21,"female",20,"tpr","inhb",0,0,1960,1974,1974,"elephant","",1,"","","","","","",1,1974,NA,NA,"inhb",0,"","","","",NA,NA,NA,NA,NA,NA,NA,NA,NA,NA,NA,NA,NA,NA,NA,NA,"114"
"alexandra","24m2h",2024,7,6,14,50,55,2572,114,21,"female",21,"tpr","inhb",1,0,1319,1368,1368,"apple","",1,"","","","","","",1,1368,NA,NA,"inhb",1,"","1","","",1368,NA,NA,NA,NA,NA,NA,NA,NA,NA,NA,NA,NA,NA,NA,NA,"114"
"alexandra","24m2h",2024,7,6,14,51,1,2572,114,21,"female",22,"tpr","prpt",1,0,1475,1475,1475,"bus","",1,"","","","","","",1,1475,NA,1475,"prpt",1,"1","","","",NA,NA,NA,NA,NA,NA,NA,NA,NA,NA,NA,NA,NA,NA,NA,NA,"114"
"alexandra","24m2h",2024,7,6,14,51,6,2572,114,21,"female",23,"tpr","inhb",1,0,1531,1556,1556,"elephant4","",1,"","","","","","",1,1556,NA,NA,"inhb",1,"","1","","",1556,NA,NA,NA,NA,NA,NA,NA,NA,NA,NA,NA,NA,NA,NA,NA,"114"
"alexandra","24m2h",2024,7,6,14,51,12,2572,114,21,"female",24,"tpr","prpt",1,0,1664,1664,1664,"owl","",1,"","","","","","",1,1664,NA,1664,"prpt",1,"1","","","",NA,NA,NA,NA,NA,NA,NA,NA,NA,NA,NA,NA,NA,NA,NA,NA,"114"
"alexandra","24m2h",2024,7,6,14,51,18,2572,114,21,"female",25,"tpr","prpt",1,0,1246,1263,1263,"elephant","",1,"","","","","","",1,1263,NA,1263,"prpt",1,"1","","","",NA,NA,NA,NA,NA,NA,NA,NA,NA,NA,NA,NA,NA,NA,NA,NA,"114"
"alexandra","24m2h",2024,7,6,14,51,23,2572,114,21,"female",26,"tpr","prpt",1,0,1284,1285,1285,"owl","",1,"","","","","","",1,1285,NA,1285,"prpt",1,"1","","","",NA,NA,NA,NA,NA,NA,NA,NA,NA,NA,NA,NA,NA,NA,NA,NA,"114"
"alexandra","24m2h",2024,7,6,14,51,28,2572,114,21,"female",27,"tpr","prpt",1,0,2090,2091,2091,"apple","",1,"","","","","","",1,2091,NA,2091,"prpt",1,"1","","","",NA,NA,NA,NA,NA,NA,NA,NA,NA,NA,NA,NA,NA,NA,NA,NA,"114"
"alexandra","24m2h",2024,7,6,14,51,35,2572,114,21,"female",28,"tpr","prpt",1,0,1267,1284,1284,"apple","",1,"","","","","","",1,1284,NA,1284,"prpt",1,"1","","","",NA,NA,NA,NA,NA,NA,NA,NA,NA,NA,NA,NA,NA,NA,NA,NA,"114"
"alexandra","24m2h",2024,7,6,14,51,40,2572,114,21,"female",29,"tpr","inhb",0,0,1468,1484,1484,"elephant2","",1,"","","","","","",1,1484,NA,NA,"inhb",0,"","","","",NA,NA,NA,NA,NA,NA,NA,NA,NA,NA,NA,NA,NA,NA,NA,NA,"114"
"alexandra","24m2h",2024,7,6,14,51,52,2572,114,21,"female",30,"tpr","inhb",1,0,1436,1458,1458,"owl","",1,"","","","","","",1,1458,NA,NA,"inhb",1,"","1","","",1458,NA,NA,NA,NA,NA,NA,NA,NA,NA,NA,NA,NA,NA,NA,NA,"114"
"alexandra","24m2h",2024,7,6,14,51,57,2572,114,21,"female",31,"tpr","prpt",1,0,1221,1237,1237,"owl","",1,"","","","","","",1,1237,NA,1237,"prpt",1,"1","","","",NA,NA,NA,NA,NA,NA,NA,NA,NA,NA,NA,NA,NA,NA,NA,NA,"114"
"alexandra","24m2h",2024,7,6,14,52,2,2572,114,21,"female",32,"tpr","prpt",1,0,1357,1357,1357,"apple","",1,"","","","","","",1,1357,NA,1357,"prpt",1,"1","","","",NA,NA,NA,NA,NA,NA,NA,NA,NA,NA,NA,NA,NA,NA,NA,NA,"114"
"alexandra","24m2h",2024,7,2,13,51,27,2563,115,24,"other",1,"prr","",1,0,22016,22017,22017,"bus","right",1,NA,"none","none","none","none","none",0,22017,NA,NA,"",1,"","","AP","none",NA,NA,NA,NA,NA,NA,NA,NA,NA,NA,NA,NA,NA,NA,NA,NA,"115"
"alexandra","24m2h",2024,7,2,13,51,53,2563,115,24,"other",1,"prr","",1,0,2960,2960,2960,"owl","",1,NA,"","","","","",1,2960,NA,NA,"",1,"","","","",NA,NA,NA,NA,NA,NA,NA,NA,NA,NA,NA,NA,NA,NA,NA,NA,"115"
"alexandra","24m2h",2024,7,2,13,52,0,2563,115,24,"other",1,"tpr","prpt",1,0,1497,1497,1497,"elephant","",1,NA,"","","","","",1,1497,NA,NA,"prpt",1,"1","","","",NA,NA,NA,NA,1497,NA,NA,NA,NA,NA,NA,NA,NA,NA,NA,NA,"115"
"alexandra","24m2h",2024,7,2,13,52,6,2563,115,24,"other",2,"tpr","prpt",1,0,3541,3541,3541,"elephant4","",1,NA,"","","","","",1,3541,NA,NA,"prpt",1,"1","","","",NA,NA,NA,NA,3541,NA,NA,NA,NA,NA,NA,NA,NA,NA,NA,NA,"115"
"alexandra","24m2h",2024,7,2,13,52,14,2563,115,24,"other",3,"tpr","prpt",1,0,1501,1516,1516,"bus","",1,NA,"","","","","",1,1516,NA,NA,"prpt",1,"1","","","",NA,NA,NA,NA,1516,NA,NA,NA,NA,NA,NA,NA,NA,NA,NA,NA,"115"
"alexandra","24m2h",2024,7,2,13,52,19,2563,115,24,"other",4,"tpr","prpt",1,0,1498,1498,1498,"elephant","",1,NA,"","","","","",1,1498,NA,NA,"prpt",1,"1","","","",NA,NA,NA,NA,1498,NA,NA,NA,NA,NA,NA,NA,NA,NA,NA,NA,"115"
"alexandra","24m2h",2024,7,2,13,52,25,2563,115,24,"other",5,"tpr","inhb",0,0,2556,2557,2557,"bus","",1,NA,"","","","","",1,2557,NA,NA,"inhb",0,"","","","",NA,NA,NA,NA,NA,NA,NA,NA,NA,NA,NA,NA,NA,NA,NA,NA,"115"
"alexandra","24m2h",2024,7,2,13,52,34,2563,115,24,"other",6,"tpr","prpt",1,0,1160,1160,1160,"apple","",1,NA,"","","","","",1,1160,NA,NA,"prpt",1,"1","","","",NA,NA,NA,NA,1160,NA,NA,NA,NA,NA,NA,NA,NA,NA,NA,NA,"115"
"alexandra","24m2h",2024,7,2,13,52,40,2563,115,24,"other",7,"tpr","prpt",1,0,1584,1584,1584,"owl","",1,NA,"","","","","",1,1584,NA,NA,"prpt",1,"1","","","",NA,NA,NA,NA,1584,NA,NA,NA,NA,NA,NA,NA,NA,NA,NA,NA,"115"
"alexandra","24m2h",2024,7,2,13,52,45,2563,115,24,"other",8,"tpr","prpt",1,0,1814,1814,1814,"flower","",1,NA,"","","","","",1,1814,NA,NA,"prpt",1,"1","","","",NA,NA,NA,NA,1814,NA,NA,NA,NA,NA,NA,NA,NA,NA,NA,NA,"115"
"alexandra","24m2h",2024,7,2,13,52,51,2563,115,24,"other",9,"tpr","prpt",1,0,1826,1826,1826,"bus","",1,NA,"","","","","",1,1826,NA,NA,"prpt",1,"1","","","",NA,NA,NA,NA,1826,NA,NA,NA,NA,NA,NA,NA,NA,NA,NA,NA,"115"
"alexandra","24m2h",2024,7,2,13,52,57,2563,115,24,"other",10,"tpr","inhb",1,0,2061,2061,2061,"apple","",1,NA,"","","","","",1,2061,NA,NA,"inhb",1,"","1","","",NA,NA,NA,2061,NA,NA,NA,NA,NA,NA,NA,NA,NA,NA,NA,NA,"115"
"alexandra","24m2h",2024,7,2,13,53,3,2563,115,24,"other",11,"tpr","prpt",1,0,1804,1804,1804,"bus","",1,NA,"","","","","",1,1804,NA,NA,"prpt",1,"1","","","",NA,NA,NA,NA,1804,NA,NA,NA,NA,NA,NA,NA,NA,NA,NA,NA,"115"
"alexandra","24m2h",2024,7,2,13,53,9,2563,115,24,"other",12,"tpr","prpt",1,0,1389,1389,1389,"flower","",1,NA,"","","","","",1,1389,NA,NA,"prpt",1,"1","","","",NA,NA,NA,NA,1389,NA,NA,NA,NA,NA,NA,NA,NA,NA,NA,NA,"115"
"alexandra","24m2h",2024,7,2,13,53,15,2563,115,24,"other",13,"tpr","inhb",1,0,1766,1766,1766,"elephant4","",1,NA,"","","","","",1,1766,NA,NA,"inhb",1,"","1","","",NA,NA,NA,1766,NA,NA,NA,NA,NA,NA,NA,NA,NA,NA,NA,NA,"115"
"alexandra","24m2h",2024,7,2,13,53,21,2563,115,24,"other",14,"tpr","inhb",1,0,1464,1464,1464,"apple","",1,NA,"","","","","",1,1464,NA,NA,"inhb",1,"","1","","",NA,NA,NA,1464,NA,NA,NA,NA,NA,NA,NA,NA,NA,NA,NA,NA,"115"
"alexandra","24m2h",2024,7,2,13,53,27,2563,115,24,"other",15,"tpr","prpt",1,0,1654,1654,1654,"bus","",1,NA,"","","","","",1,1654,NA,NA,"prpt",1,"1","","","",NA,NA,NA,NA,1654,NA,NA,NA,NA,NA,NA,NA,NA,NA,NA,NA,"115"
"alexandra","24m2h",2024,7,2,13,53,32,2563,115,24,"other",16,"tpr","inhb",1,0,1655,1655,1655,"elephant","",1,NA,"","","","","",1,1655,NA,NA,"inhb",1,"","1","","",NA,NA,NA,1655,NA,NA,NA,NA,NA,NA,NA,NA,NA,NA,NA,NA,"115"
"alexandra","24m2h",2024,7,2,13,53,38,2563,115,24,"other",17,"tpr","prpt",1,0,2225,2225,2225,"elephant2","",1,NA,"","","","","",1,2225,NA,NA,"prpt",1,"1","","","",NA,NA,NA,NA,2225,NA,NA,NA,NA,NA,NA,NA,NA,NA,NA,NA,"115"
"alexandra","24m2h",2024,7,2,13,53,45,2563,115,24,"other",18,"tpr","inhb",1,0,1846,1846,1846,"elephant","",1,NA,"","","","","",1,1846,NA,NA,"inhb",1,"","1","","",NA,NA,NA,1846,NA,NA,NA,NA,NA,NA,NA,NA,NA,NA,NA,NA,"115"
"alexandra","24m2h",2024,7,2,13,53,51,2563,115,24,"other",19,"tpr","prpt",1,0,2031,2415,2415,"elephant2","",1,NA,"","","","","",1,2415,NA,NA,"prpt",1,"1","","","",NA,NA,NA,NA,2415,NA,NA,NA,NA,NA,NA,NA,NA,NA,NA,NA,"115"
"alexandra","24m2h",2024,7,2,13,53,57,2563,115,24,"other",20,"tpr","prpt",1,0,1470,1471,1471,"apple","",1,NA,"","","","","",1,1471,NA,NA,"prpt",1,"1","","","",NA,NA,NA,NA,1471,NA,NA,NA,NA,NA,NA,NA,NA,NA,NA,NA,"115"
"alexandra","24m2h",2024,7,2,13,54,3,2563,115,24,"other",21,"tpr","prpt",1,0,1069,1069,1069,"flower","",1,NA,"","","","","",1,1069,NA,NA,"prpt",1,"1","","","",NA,NA,NA,NA,1069,NA,NA,NA,NA,NA,NA,NA,NA,NA,NA,NA,"115"
"alexandra","24m2h",2024,7,2,13,54,8,2563,115,24,"other",22,"tpr","prpt",1,0,1345,1345,1345,"flower","",1,NA,"","","","","",1,1345,NA,NA,"prpt",1,"1","","","",NA,NA,NA,NA,1345,NA,NA,NA,NA,NA,NA,NA,NA,NA,NA,NA,"115"
"alexandra","24m2h",2024,7,2,13,54,14,2563,115,24,"other",23,"tpr","prpt",1,0,1726,1726,1726,"bus","",1,NA,"","","","","",1,1726,NA,NA,"prpt",1,"1","","","",NA,NA,NA,NA,1726,NA,NA,NA,NA,NA,NA,NA,NA,NA,NA,NA,"115"
"alexandra","24m2h",2024,7,2,13,54,20,2563,115,24,"other",24,"tpr","inhb",1,0,1811,1811,1811,"elephant","",1,NA,"","","","","",1,1811,NA,NA,"inhb",1,"","1","","",NA,NA,NA,1811,NA,NA,NA,NA,NA,NA,NA,NA,NA,NA,NA,NA,"115"
"alexandra","24m2h",2024,7,2,13,54,26,2563,115,24,"other",25,"tpr","prpt",1,0,2126,2126,2126,"elephant4","",1,NA,"","","","","",1,2126,NA,NA,"prpt",1,"1","","","",NA,NA,NA,NA,2126,NA,NA,NA,NA,NA,NA,NA,NA,NA,NA,NA,"115"
"alexandra","24m2h",2024,7,2,13,54,32,2563,115,24,"other",26,"tpr","prpt",1,0,1306,1306,1306,"flower","",1,NA,"","","","","",1,1306,NA,NA,"prpt",1,"1","","","",NA,NA,NA,NA,1306,NA,NA,NA,NA,NA,NA,NA,NA,NA,NA,NA,"115"
"alexandra","24m2h",2024,7,2,13,54,38,2563,115,24,"other",27,"tpr","prpt",1,0,1772,1772,1772,"bus","",1,NA,"","","","","",1,1772,NA,NA,"prpt",1,"1","","","",NA,NA,NA,NA,1772,NA,NA,NA,NA,NA,NA,NA,NA,NA,NA,NA,"115"
"alexandra","24m2h",2024,7,2,13,54,44,2563,115,24,"other",28,"tpr","prpt",1,0,763,763,763,"elephant4","",1,NA,"","","","","",1,763,NA,NA,"prpt",1,"1","","","",NA,NA,NA,NA,763,NA,NA,NA,NA,NA,NA,NA,NA,NA,NA,NA,"115"
"alexandra","24m2h",2024,7,2,13,54,49,2563,115,24,"other",29,"tpr","prpt",1,0,497,497,497,"owl","",1,NA,"","","","","",1,497,NA,NA,"prpt",1,"1","","","",NA,NA,NA,NA,497,NA,NA,NA,NA,NA,NA,NA,NA,NA,NA,NA,"115"
"alexandra","24m2h",2024,7,2,13,54,53,2563,115,24,"other",30,"tpr","inhb",1,0,2388,2389,2389,"apple","",1,NA,"","","","","",1,2389,NA,NA,"inhb",1,"","1","","",NA,NA,NA,2389,NA,NA,NA,NA,NA,NA,NA,NA,NA,NA,NA,NA,"115"
"alexandra","24m2h",2024,7,2,13,55,0,2563,115,24,"other",31,"tpr","prpt",0,0,18,19,19,"elephant2","",0,"3","","","","","",1,19,NA,NA,"prpt",0,"","","","",NA,NA,NA,NA,NA,NA,NA,NA,NA,NA,NA,NA,NA,NA,NA,NA,"115"
"alexandra","24m2h",2024,7,2,13,55,6,2563,115,24,"other",32,"tpr","prpt",1,0,1686,1687,1687,"apple","",1,NA,"","","","","",1,1687,NA,NA,"prpt",1,"1","","","",NA,NA,NA,NA,1687,NA,NA,NA,NA,NA,NA,NA,NA,NA,NA,NA,"115"
"alexandra","24m2h",2024,7,3,14,55,23,2565,116,25,"female",1,"prl","",1,0,8133,8134,8134,"bus","left",1,"none","none","none","none","none","none",0,8134,NA,NA,"",1,"","","AP","none",NA,NA,NA,NA,NA,NA,NA,NA,NA,NA,NA,NA,NA,NA,NA,NA,"116"
"alexandra","24m2h",2024,7,3,14,55,36,2565,116,25,"female",1,"prl","",1,0,2488,2488,2488,"apple","",1,"","","","","","",1,2488,NA,NA,"",1,"","","","",NA,NA,NA,NA,NA,NA,NA,NA,NA,NA,NA,NA,NA,NA,NA,NA,"116"
"alexandra","24m2h",2024,7,3,14,55,43,2565,116,25,"female",1,"tpl","prpt",1,0,2980,2980,2980,"elephant","",1,"","","","","","",1,2980,NA,NA,"prpt",1,"1","","","",NA,NA,NA,NA,NA,NA,2980,NA,NA,NA,NA,NA,NA,NA,NA,NA,"116"
"alexandra","24m2h",2024,7,3,14,55,50,2565,116,25,"female",2,"tpl","prpt",1,0,3050,3050,3050,"apple","",1,"","","","","","",1,3050,NA,NA,"prpt",1,"1","","","",NA,NA,NA,NA,NA,NA,3050,NA,NA,NA,NA,NA,NA,NA,NA,NA,"116"
"alexandra","24m2h",2024,7,3,14,55,57,2565,116,25,"female",3,"tpl","prpt",1,0,3308,3308,3308,"flower","",1,"","","","","","",1,3308,NA,NA,"prpt",1,"1","","","",NA,NA,NA,NA,NA,NA,3308,NA,NA,NA,NA,NA,NA,NA,NA,NA,"116"
"alexandra","24m2h",2024,7,3,14,56,5,2565,116,25,"female",4,"tpl","prpt",1,0,2368,2368,2368,"elephant4","",1,"","","","","","",1,2368,NA,NA,"prpt",1,"1","","","",NA,NA,NA,NA,NA,NA,2368,NA,NA,NA,NA,NA,NA,NA,NA,NA,"116"
"alexandra","24m2h",2024,7,3,14,56,11,2565,116,25,"female",5,"tpl","prpt",1,0,1687,1687,1687,"elephant4","",1,"","","","","","",1,1687,NA,NA,"prpt",1,"1","","","",NA,NA,NA,NA,NA,NA,1687,NA,NA,NA,NA,NA,NA,NA,NA,NA,"116"
"alexandra","24m2h",2024,7,3,14,56,17,2565,116,25,"female",6,"tpl","inhb",1,0,1694,1694,1694,"bus","",1,"","","","","","",1,1694,NA,NA,"inhb",1,"","1","","",NA,NA,NA,NA,NA,1694,NA,NA,NA,NA,NA,NA,NA,NA,NA,NA,"116"
"alexandra","24m2h",2024,7,3,14,56,23,2565,116,25,"female",7,"tpl","prpt",0,0,2000,2000,2000,"flower","",1,"","","","","","",1,2000,NA,NA,"prpt",0,"","","","",NA,NA,NA,NA,NA,NA,NA,NA,NA,NA,NA,NA,NA,NA,NA,NA,"116"
"alexandra","24m2h",2024,7,3,14,56,32,2565,116,25,"female",8,"tpl","prpt",1,0,1264,1264,1264,"elephant2","",1,"","","","","","",1,1264,NA,NA,"prpt",1,"1","","","",NA,NA,NA,NA,NA,NA,1264,NA,NA,NA,NA,NA,NA,NA,NA,NA,"116"
"alexandra","24m2h",2024,7,3,14,56,38,2565,116,25,"female",9,"tpl","prpt",1,0,1899,1899,1899,"apple","",1,"","","","","","",1,1899,NA,NA,"prpt",1,"1","","","",NA,NA,NA,NA,NA,NA,1899,NA,NA,NA,NA,NA,NA,NA,NA,NA,"116"
"alexandra","24m2h",2024,7,3,14,56,44,2565,116,25,"female",10,"tpl","prpt",0,0,1705,1705,1705,"elephant2","",1,"","","","","","",1,1705,NA,NA,"prpt",0,"","","","",NA,NA,NA,NA,NA,NA,NA,NA,NA,NA,NA,NA,NA,NA,NA,NA,"116"
"alexandra","24m2h",2024,7,3,14,56,51,2565,116,25,"female",11,"tpl","inhb",1,0,2162,2162,2162,"bus","",1,"","","","","","",1,2162,NA,NA,"inhb",1,"","1","","",NA,NA,NA,NA,NA,2162,NA,NA,NA,NA,NA,NA,NA,NA,NA,NA,"116"
"alexandra","24m2h",2024,7,3,14,56,58,2565,116,25,"female",12,"tpl","prpt",1,0,1827,1828,1828,"flower","",1,"","","","","","",1,1828,NA,NA,"prpt",1,"1","","","",NA,NA,NA,NA,NA,NA,1828,NA,NA,NA,NA,NA,NA,NA,NA,NA,"116"
"alexandra","24m2h",2024,7,3,14,57,4,2565,116,25,"female",13,"tpl","prpt",1,0,1138,1138,1138,"flower","",1,"","","","","","",1,1138,NA,NA,"prpt",1,"1","","","",NA,NA,NA,NA,NA,NA,1138,NA,NA,NA,NA,NA,NA,NA,NA,NA,"116"
"alexandra","24m2h",2024,7,3,14,57,9,2565,116,25,"female",14,"tpl","inhb",1,0,1344,1344,1344,"apple","",1,"","","","","","",1,1344,NA,NA,"inhb",1,"","1","","",NA,NA,NA,NA,NA,1344,NA,NA,NA,NA,NA,NA,NA,NA,NA,NA,"116"
"alexandra","24m2h",2024,7,3,14,57,15,2565,116,25,"female",15,"tpl","prpt",0,0,1811,1811,1811,"bus","",1,"","","","","","",1,1811,NA,NA,"prpt",0,"","","","",NA,NA,NA,NA,NA,NA,NA,NA,NA,NA,NA,NA,NA,NA,NA,NA,"116"
"alexandra","24m2h",2024,7,3,14,57,22,2565,116,25,"female",16,"tpl","prpt",1,0,1980,1980,1980,"elephant4","",1,"","","","","","",1,1980,NA,NA,"prpt",1,"1","","","",NA,NA,NA,NA,NA,NA,1980,NA,NA,NA,NA,NA,NA,NA,NA,NA,"116"
"alexandra","24m2h",2024,7,3,14,57,28,2565,116,25,"female",17,"tpl","inhb",1,0,1694,1695,1695,"elephant","",1,"","","","","","",1,1695,NA,NA,"inhb",1,"","1","","",NA,NA,NA,NA,NA,1695,NA,NA,NA,NA,NA,NA,NA,NA,NA,NA,"116"
"alexandra","24m2h",2024,7,3,14,57,34,2565,116,25,"female",18,"tpl","prpt",1,0,1423,1423,1423,"elephant","",1,"","","","","","",1,1423,NA,NA,"prpt",1,"1","","","",NA,NA,NA,NA,NA,NA,1423,NA,NA,NA,NA,NA,NA,NA,NA,NA,"116"
"alexandra","24m2h",2024,7,3,14,57,40,2565,116,25,"female",19,"tpl","inhb",1,0,1292,1292,1292,"elephant2","",1,"","","","","","",1,1292,NA,NA,"inhb",1,"","1","","",NA,NA,NA,NA,NA,1292,NA,NA,NA,NA,NA,NA,NA,NA,NA,NA,"116"
"alexandra","24m2h",2024,7,3,14,57,45,2565,116,25,"female",20,"tpl","prpt",1,0,1230,1231,1231,"elephant2","",1,"","","","","","",1,1231,NA,NA,"prpt",1,"1","","","",NA,NA,NA,NA,NA,NA,1231,NA,NA,NA,NA,NA,NA,NA,NA,NA,"116"
"alexandra","24m2h",2024,7,3,14,57,51,2565,116,25,"female",21,"tpl","prpt",1,0,1426,1426,1426,"flower","",1,"","","","","","",1,1426,NA,NA,"prpt",1,"1","","","",NA,NA,NA,NA,NA,NA,1426,NA,NA,NA,NA,NA,NA,NA,NA,NA,"116"
"alexandra","24m2h",2024,7,3,14,57,56,2565,116,25,"female",22,"tpl","inhb",1,0,1379,1379,1379,"flower","",1,"","","","","","",1,1379,NA,NA,"inhb",1,"","1","","",NA,NA,NA,NA,NA,1379,NA,NA,NA,NA,NA,NA,NA,NA,NA,NA,"116"
"alexandra","24m2h",2024,7,3,14,58,2,2565,116,25,"female",23,"tpl","prpt",1,0,1304,1304,1304,"elephant4","",1,"","","","","","",1,1304,NA,NA,"prpt",1,"1","","","",NA,NA,NA,NA,NA,NA,1304,NA,NA,NA,NA,NA,NA,NA,NA,NA,"116"
"alexandra","24m2h",2024,7,3,14,58,7,2565,116,25,"female",24,"tpl","inhb",1,0,1138,1138,1138,"owl","",1,"","","","","","",1,1138,NA,NA,"inhb",1,"","1","","",NA,NA,NA,NA,NA,1138,NA,NA,NA,NA,NA,NA,NA,NA,NA,NA,"116"
"alexandra","24m2h",2024,7,3,14,58,12,2565,116,25,"female",25,"tpl","prpt",0,0,1890,1891,1891,"owl","",1,"","","","","","",1,1891,NA,NA,"prpt",0,"","","","",NA,NA,NA,NA,NA,NA,NA,NA,NA,NA,NA,NA,NA,NA,NA,NA,"116"
"alexandra","24m2h",2024,7,3,14,58,20,2565,116,25,"female",26,"tpl","prpt",0,0,1286,1286,1286,"elephant4","",1,"","","","","","",1,1286,NA,NA,"prpt",0,"","","","",NA,NA,NA,NA,NA,NA,NA,NA,NA,NA,NA,NA,NA,NA,NA,NA,"116"
"alexandra","24m2h",2024,7,3,14,58,26,2565,116,25,"female",27,"tpl","prpt",1,0,993,994,994,"apple","",1,"","","","","","",1,994,NA,NA,"prpt",1,"1","","","",NA,NA,NA,NA,NA,NA,994,NA,NA,NA,NA,NA,NA,NA,NA,NA,"116"
"alexandra","24m2h",2024,7,3,14,58,32,2565,116,25,"female",28,"tpl","inhb",1,0,1950,1950,1950,"elephant4","",1,"","","","","","",1,1950,NA,NA,"inhb",1,"","1","","",NA,NA,NA,NA,NA,1950,NA,NA,NA,NA,NA,NA,NA,NA,NA,NA,"116"
"alexandra","24m2h",2024,7,3,14,58,38,2565,116,25,"female",29,"tpl","prpt",1,0,3343,3343,3343,"elephant2","",1,"","","","","","",1,3343,NA,NA,"prpt",1,"1","","","",NA,NA,NA,NA,NA,NA,3343,NA,NA,NA,NA,NA,NA,NA,NA,NA,"116"
"alexandra","24m2h",2024,7,3,14,58,45,2565,116,25,"female",30,"tpl","prpt",1,0,1322,1322,1322,"bus","",1,"","","","","","",1,1322,NA,NA,"prpt",1,"1","","","",NA,NA,NA,NA,NA,NA,1322,NA,NA,NA,NA,NA,NA,NA,NA,NA,"116"
"alexandra","24m2h",2024,7,3,14,58,51,2565,116,25,"female",31,"tpl","prpt",1,0,1835,1835,1835,"apple","",1,"","","","","","",1,1835,NA,NA,"prpt",1,"1","","","",NA,NA,NA,NA,NA,NA,1835,NA,NA,NA,NA,NA,NA,NA,NA,NA,"116"
"alexandra","24m2h",2024,7,3,14,58,57,2565,116,25,"female",32,"tpl","prpt",1,0,1764,1764,1764,"elephant","",1,"","","","","","",1,1764,NA,NA,"prpt",1,"1","","","",NA,NA,NA,NA,NA,NA,1764,NA,NA,NA,NA,NA,NA,NA,NA,NA,"116"
"alexandra","24m2h",2024,7,13,13,29,53,2584,117,20,"female",1,"prr","",1,0,57722,57722,57722,"elephant","right",1,NA,"none","none","none","none","none",0,57722,NA,NA,"",1,"","","AP","none",NA,NA,NA,NA,NA,NA,NA,NA,NA,NA,NA,NA,NA,NA,NA,NA,"117"
"alexandra","24m2h",2024,7,13,13,30,55,2584,117,20,"female",1,"prr","",1,0,1807,1807,1807,"elephant","",1,NA,"","","","","",1,1807,NA,NA,"",1,"","","","",NA,NA,NA,NA,NA,NA,NA,NA,NA,NA,NA,NA,NA,NA,NA,NA,"117"
"alexandra","24m2h",2024,7,13,13,31,1,2584,117,20,"female",1,"prr","",1,0,1108,1108,1108,"elephant4","",1,NA,"","","","","",1,1108,NA,NA,"",1,"","","","",NA,NA,NA,NA,NA,NA,NA,NA,NA,NA,NA,NA,NA,NA,NA,NA,"117"
"alexandra","24m2h",2024,7,13,13,31,8,2584,117,20,"female",1,"prr","",1,0,23479,23479,23479,"elephant4","",1,NA,"","","","","",0,23479,NA,NA,"",1,"","","","",NA,NA,NA,NA,NA,NA,NA,NA,NA,NA,NA,NA,NA,NA,NA,NA,"117"
"alexandra","24m2h",2024,7,13,13,31,36,2584,117,20,"female",1,"prr","",1,0,8070,8070,8070,"apple","",1,NA,"","","","","",0,8070,NA,NA,"",1,"","","","",NA,NA,NA,NA,NA,NA,NA,NA,NA,NA,NA,NA,NA,NA,NA,NA,"117"
"alexandra","24m2h",2024,7,13,13,31,52,2584,117,20,"female",1,"prr","",1,0,9405,9405,9405,"flower","",1,NA,"","","","","",0,9405,NA,NA,"",1,"","","","",NA,NA,NA,NA,NA,NA,NA,NA,NA,NA,NA,NA,NA,NA,NA,NA,"117"
"alexandra","24m2h",2024,7,13,13,32,18,2584,117,20,"female",1,"prr","",1,0,5366,23982,23982,"elephant","",1,NA,"","","","","",0,23982,NA,NA,"",1,"","","","",NA,NA,NA,NA,NA,NA,NA,NA,NA,NA,NA,NA,NA,NA,NA,NA,"117"
"alexandra","24m2h",2024,7,13,13,32,46,2584,117,20,"female",1,"prr","",1,0,2819,2819,2819,"elephant","",1,NA,"","","","","",1,2819,NA,NA,"",1,"","","","",NA,NA,NA,NA,NA,NA,NA,NA,NA,NA,NA,NA,NA,NA,NA,NA,"117"
"alexandra","24m2h",2024,7,13,13,32,53,2584,117,20,"female",1,"prr","",1,0,18259,34081,34081,"apple","",1,NA,"","","","","",0,34081,NA,NA,"",1,"","","","",NA,NA,NA,NA,NA,NA,NA,NA,NA,NA,NA,NA,NA,NA,NA,NA,"117"
"alexandra","24m2h",2024,7,13,13,33,31,2584,117,20,"female",1,"prr","",1,0,31761,31761,31761,"elephant","",1,NA,"","","","","",0,31761,NA,NA,"",1,"","","","",NA,NA,NA,NA,NA,NA,NA,NA,NA,NA,NA,NA,NA,NA,NA,NA,"117"
"alexandra","24m2h",2024,7,13,13,34,7,2584,117,20,"female",1,"prr","",1,0,9463,9463,9463,"elephant4","",1,NA,"","","","","",0,9463,NA,NA,"",1,"","","","",NA,NA,NA,NA,NA,NA,NA,NA,NA,NA,NA,NA,NA,NA,NA,NA,"117"
"alexandra","24m2h",2024,7,13,13,34,21,2584,117,20,"female",1,"prr","",1,0,6383,6383,6383,"bus","",1,NA,"","","","","",0,6383,NA,NA,"",1,"","","","",NA,NA,NA,NA,NA,NA,NA,NA,NA,NA,NA,NA,NA,NA,NA,NA,"117"
"alexandra","24m2h",2024,7,13,13,34,32,2584,117,20,"female",1,"prr","",1,0,7309,7309,7309,"elephant2","",1,NA,"","","","","",0,7309,NA,NA,"",1,"","","","",NA,NA,NA,NA,NA,NA,NA,NA,NA,NA,NA,NA,NA,NA,NA,NA,"117"
"alexandra","24m2h",2024,7,13,13,34,44,2584,117,20,"female",1,"prr","",1,0,7002,9528,9528,"elephant2","",1,NA,"","","","","",0,9528,NA,NA,"",1,"","","","",NA,NA,NA,NA,NA,NA,NA,NA,NA,NA,NA,NA,NA,NA,NA,NA,"117"
"alexandra","24m2h",2024,7,13,13,35,0,2584,117,20,"female",1,"prr","",1,0,9055,29511,29511,"flower","",1,NA,"","","","","",0,29511,NA,NA,"",1,"","","","",NA,NA,NA,NA,NA,NA,NA,NA,NA,NA,NA,NA,NA,NA,NA,NA,"117"
"alexandra","24m2h",2024,7,13,13,35,34,2584,117,20,"female",1,"prr","",1,0,1256,1256,1256,"owl","",1,NA,"","","","","",1,1256,NA,NA,"",1,"","","","",NA,NA,NA,NA,NA,NA,NA,NA,NA,NA,NA,NA,NA,NA,NA,NA,"117"
"alexandra","24m2h",2024,7,13,13,35,39,2584,117,20,"female",1,"prr","",1,0,10326,10326,10326,"owl","",1,NA,"","","","","",0,10326,NA,NA,"",1,"","","","",NA,NA,NA,NA,NA,NA,NA,NA,NA,NA,NA,NA,NA,NA,NA,NA,"117"
"alexandra","24m2h",2024,7,13,13,35,58,2584,117,20,"female",1,"prr","",1,0,3582,3582,3582,"flower","",1,NA,"","","","","",1,3582,NA,NA,"",1,"","","","",NA,NA,NA,NA,NA,NA,NA,NA,NA,NA,NA,NA,NA,NA,NA,NA,"117"
"alexandra","24m2h",2024,7,13,13,36,6,2584,117,20,"female",1,"tpr","prpt",0,0,8690,8690,8690,"elephant4","",1,"9","","","","","",0,8690,NA,NA,"prpt",0,"","","","",NA,NA,NA,NA,NA,NA,NA,NA,NA,NA,NA,NA,NA,NA,NA,NA,"117"
"alexandra","24m2h",2024,7,13,13,36,22,2584,117,20,"female",2,"tpr","prpt",1,0,1928,2202,2202,"elephant2","",1,NA,"","","","","",1,2202,NA,2202,"prpt",1,"1","","","",NA,NA,NA,NA,NA,NA,NA,NA,NA,NA,NA,NA,NA,NA,NA,NA,"117"
"alexandra","24m2h",2024,7,13,13,36,28,2584,117,20,"female",3,"tpr","prpt",1,0,1544,1727,1727,"elephant4","",1,NA,"","","","","",1,1727,NA,1727,"prpt",1,"1","","","",NA,NA,NA,NA,NA,NA,NA,NA,NA,NA,NA,NA,NA,NA,NA,NA,"117"
"alexandra","24m2h",2024,7,13,13,36,34,2584,117,20,"female",4,"tpr","prpt",0,0,2438,2438,2438,"elephant","",1,NA,"","","","","",1,2438,NA,NA,"prpt",0,"","","","",NA,NA,NA,NA,NA,NA,NA,NA,NA,NA,NA,NA,NA,NA,NA,NA,"117"
"alexandra","24m2h",2024,7,13,13,36,42,2584,117,20,"female",5,"tpr","inhb",1,0,17919,17919,17919,"elephant2","",1,"9","","","","","",0,17919,NA,NA,"inhb",1,"","","","",NA,NA,NA,NA,NA,NA,NA,NA,NA,NA,NA,NA,NA,NA,NA,NA,"117"
"alexandra","24m2h",2024,7,13,13,37,4,2584,117,20,"female",6,"tpr","prpt",1,0,19922,19922,19922,"elephant","",1,"9","","","","","",0,19922,NA,NA,"prpt",1,"","","","",NA,NA,NA,NA,NA,NA,NA,NA,NA,NA,NA,NA,NA,NA,NA,NA,"117"
"alexandra","24m2h",2024,7,13,13,37,28,2584,117,20,"female",7,"tpr","prpt",1,0,1351,1351,1351,"elephant4","",1,NA,"","","","","",1,1351,NA,1351,"prpt",1,"1","","","",NA,NA,NA,NA,NA,NA,NA,NA,NA,NA,NA,NA,NA,NA,NA,NA,"117"
"alexandra","24m2h",2024,7,13,13,37,34,2584,117,20,"female",8,"tpr","prpt",0,0,1744,1744,1744,"bus","",1,NA,"","","","","",1,1744,NA,NA,"prpt",0,"","","","",NA,NA,NA,NA,NA,NA,NA,NA,NA,NA,NA,NA,NA,NA,NA,NA,"117"
"alexandra","24m2h",2024,7,13,13,37,45,2584,117,20,"female",9,"tpr","prpt",1,0,1478,1478,1478,"flower","",1,NA,"","","","","",1,1478,NA,1478,"prpt",1,"1","","","",NA,NA,NA,NA,NA,NA,NA,NA,NA,NA,NA,NA,NA,NA,NA,NA,"117"
"alexandra","24m2h",2024,7,13,13,37,50,2584,117,20,"female",10,"tpr","inhb",0,0,1451,1834,1834,"elephant4","",1,NA,"","","","","",1,1834,NA,NA,"inhb",0,"","","","",NA,NA,NA,NA,NA,NA,NA,NA,NA,NA,NA,NA,NA,NA,NA,NA,"117"
"alexandra","24m2h",2024,7,13,13,38,0,2584,117,20,"female",11,"tpr","inhb",1,0,757,757,757,"bus","",1,NA,"","","","","",1,757,NA,NA,"inhb",1,"","1","","",757,NA,NA,NA,NA,NA,NA,NA,NA,NA,NA,NA,NA,NA,NA,NA,"117"
"alexandra","24m2h",2024,7,13,13,38,5,2584,117,20,"female",12,"tpr","prpt",1,0,2300,2300,2300,"bus","",1,NA,"","","","","",1,2300,NA,2300,"prpt",1,"1","","","",NA,NA,NA,NA,NA,NA,NA,NA,NA,NA,NA,NA,NA,NA,NA,NA,"117"
"alexandra","24m2h",2024,7,13,13,38,12,2584,117,20,"female",13,"tpr","prpt",1,0,1550,1550,1550,"apple","",1,NA,"","","","","",1,1550,NA,1550,"prpt",1,"1","","","",NA,NA,NA,NA,NA,NA,NA,NA,NA,NA,NA,NA,NA,NA,NA,NA,"117"
"alexandra","24m2h",2024,7,13,13,38,17,2584,117,20,"female",14,"tpr","prpt",0,0,1617,1617,1617,"bus","",1,NA,"","","","","",1,1617,NA,NA,"prpt",0,"","","","",NA,NA,NA,NA,NA,NA,NA,NA,NA,NA,NA,NA,NA,NA,NA,NA,"117"
"alexandra","24m2h",2024,7,13,13,38,24,2584,117,20,"female",15,"tpr","prpt",1,0,1667,1667,1667,"bus","",1,NA,"","","","","",1,1667,NA,1667,"prpt",1,"1","","","",NA,NA,NA,NA,NA,NA,NA,NA,NA,NA,NA,NA,NA,NA,NA,NA,"117"
"alexandra","24m2h",2024,7,13,13,38,30,2584,117,20,"female",16,"tpr","inhb",1,0,1878,1878,1878,"flower","",1,NA,"","","","","",1,1878,NA,NA,"inhb",1,"","1","","",1878,NA,NA,NA,NA,NA,NA,NA,NA,NA,NA,NA,NA,NA,NA,NA,"117"
"alexandra","24m2h",2024,7,13,13,38,36,2584,117,20,"female",17,"tpr","prpt",1,0,1386,1386,1386,"elephant4","",1,NA,"","","","","",1,1386,NA,1386,"prpt",1,"1","","","",NA,NA,NA,NA,NA,NA,NA,NA,NA,NA,NA,NA,NA,NA,NA,NA,"117"
"alexandra","24m2h",2024,7,13,13,38,41,2584,117,20,"female",18,"tpr","prpt",1,0,27519,27520,27520,"elephant2","",1,"9","","","","","",0,27520,NA,NA,"prpt",1,"","","","",NA,NA,NA,NA,NA,NA,NA,NA,NA,NA,NA,NA,NA,NA,NA,NA,"117"
"alexandra","24m2h",2024,7,13,13,39,13,2584,117,20,"female",19,"tpr","prpt",1,0,440,19770,19770,"owl","",1,"9","","","","","",0,19770,NA,NA,"prpt",1,"","","","",NA,NA,NA,NA,NA,NA,NA,NA,NA,NA,NA,NA,NA,NA,NA,NA,"117"
"alexandra","24m2h",2024,7,13,13,39,37,2584,117,20,"female",20,"tpr","prpt",1,0,171,1622,1622,"elephant","",1,NA,"","","","","",1,1622,NA,1622,"prpt",1,"1","","","",NA,NA,NA,NA,NA,NA,NA,NA,NA,NA,NA,NA,NA,NA,NA,NA,"117"
