"","id","tester","testName","year","mth","day","hour","min","sec","partNo","partRef","age.x","gender.x","trialNo","trialType","trialVar","accu","dotPr","touchTime","respTime","trialTime","animShown","prpt.location","validity_basedonRT","reason.invalid","terminated.early.","reason.terminated","held.back.","override.software","Reason.overwritten","retain.RT.as..5000ms","respTime.1","median.time.inh.","med..Time.prpt","trialVar.1","accu.1","accu.prpt","accu.inh","coder","notes","med..time.inh.","Coder","med..Time.inh","median.prpt.time","median.inh.time","inh","prpt","coder.initials","accuracy.prpt","accuracy.inh","X","X.1","trialVariant","avgDotPressed","avgAccuracy","noOfResps","gender.y","agedichotomy","age.y","income","domlanguagepercent","nondomlanguagepercent","category20","category25","accuprptINTER","ACCUPRPTSOLO","accuprpt","accuinhINTER","ACCUINHSOLO","accuinh","Accudiff","RTPRPTINTER","RTPRPTSOLO","RTprpt","RTINHINTER","RTINTERSOLO","RTinh","RTdiff","EEFQIC","EEFQICINTER","EEFQWM","EEFQWMinter","EEFQFX","EEFQFXINTER","EEFQRG","EEFQRGINTER","EEFQCEF","EEFQCEFINTER","L1Vocab","B1RT","B2RT","RTavgdiff","Zaccuprpt","Zaccuinh","ZRTprpt","ZRTinh","ZEEFQIC","ZEEFQWM","ZEEFQFX","ZEEFQRG","ZEEFQCEF","MAH_1","mah_p","ZSco01","ZSco02","ZSco03","ZSco04","ZSco05","ZSco06","ZSco07","ZSco08","ZSco09","Zgender","Zage","Zincome","Zdomlanguagepercent","Znondomlanguagepercent","Zcategory20","Zcategory25","PRE_1","RES_1","ZPR_1","ZRE_1","PRE_2","RES_2","ZPR_2","ZRE_2","PRE_3","RES_3","ZPR_3","ZRE_3","PRE_4","RES_4","ZPR_4","ZRE_4","PRE_5","RES_5","ZPR_5","ZRE_5","PRE_6","RES_6","ZPR_6","ZRE_6","PRE_7","RES_7","ZPR_7","ZRE_7","PRE_8","RES_8","ZPR_8","ZRE_8","PRE_9","RES_9","ZPR_9","ZRE_9","StdZ01","StdZ02","StdZ03","StdZ04","StdZ05","StdZ06","StdZ07","StdZ08","StdZ09","StdZ10","StdZ11","StdZ12","StdZ13","StdZ14","StdZ15","StdZ16","ZL1Vocab","ZL2Vocab","ZTotalvocabBIL","ZzZz01","ZzZz02","ZzZz03","ZzZz04","ZzZz05","ZzZz06","ZzZz07","ZzZz08","ZzZz09","ZzZz10","ZzZz11","ZzZz12","ZzZz13","ZzZz14","ZzZz15","ZqZq01","ZqZq02","ZqZq03","ZqZq04","ZqZq05","ZqZq06","ZqZq07","ZqZq08","ZqZq09","ZqZq10","ZqZq11","ZqZq12","ZqZq13","ZqZq14","ZqZq15","ZAccudiff","ZRTdiff","COO_1","COO_2","COO_3","COO_4","COO_5","COO_6","COO_7","COO_8","COO_9","COO_10","COO_11","COO_12","COO_13","COO_14","COO_15","COO_16","COO_17","COO_18","COO_19","COO_20","COO_21","COO_22","COO_23","SEP_1","SEP_2","ZRE_10","ZRE_11","COO_24","COO_25"
"1","101","alexandra","24m2h",2024,6,15,14,53,10,2541,101,23,"female",6,"tpr","inhb",1,0,2974,2975,2975,"elephant4","",1,"","","","","","",1,2975,2975,NA,"inhb",1,"","1","",NA,NA,NA,NA,NA,NA,NA,NA,NA,NA,NA,NA,NA,NA,NA,NA,NA,1,2,23.13,6,99,1,1,1,1,1,1,0.875,0.875,0.875,0.13,1735,1735,1735,2021,2021,2021,-286,3.57142857,3.57142857,4,4,4.75,4.75,6.375,6.375,4.15,4.15,264,2482.33,1786.75,-695.58,1.11587,1.05683,0.01599,0.00337,-1.50783,-2.9881,0.07326,1.54546,-1.80649,27.11292,0.00134,1.11587,1.05683,0.01599,0.00337,-1.50783,-2.9881,0.07326,1.54546,-1.80649,-0.94148,1.10006,0.02891,1.2757,-1.2757,-1.02526,-0.83808,0.91832,0.08168,0.89009,0.86578,0.72336,0.15164,1.45607,0.551,1632.04019,102.95981,-1.40889,0.20666,1830.42869,190.57131,-1.23139,0.23446,4.70926,-1.13783,-0.65597,-1.40895,5.63233,-1.63233,0.05765,-3.02942,4.64524,0.10476,-0.32432,0.1566,4.77165,1.60335,0.56654,1.44103,4.97344,-0.82344,-0.32302,-1.77374,1.11587,1.05683,0.01599,0.00337,-1.50783,-2.9881,0.07326,1.54546,-1.80649,-0.94148,1.10006,0.02891,1.2757,-1.2757,-1.02526,-0.83808,1.34032,NA,NA,1.11587,1.05683,0.01599,0.00337,-1.50783,-2.9881,0.07326,1.54546,-1.80649,-0.94148,1.10006,0.02891,-1.2757,-0.83808,1.34032,1.11587,1.05683,0.01599,0.00337,-1.50783,-2.9881,0.07326,1.54546,-1.80649,-0.94148,1.10006,0.02891,-1.2757,-0.83808,1.34032,-0.67314,0.00694,0.00036,0.01148,0.01148,0.02112,0.0011,0.00036,0.01148,0.02112,0.0011,0.00253,0.01749,0.00159,0.00032,0.01718,0.00696,0.00101,0.00131,0.01718,0.01718,0.01718,0.00696,0.00101,0.00131,0.02,0.05,0.92,0.85,0.02,0.01
"2","101","alexandra","24m2h",2024,6,15,14,55,37,2541,101,23,"female",29,"tpr","prpt",1,0,3110,3111,3111,"elephant2","",1,"","","","","","",1,3111,NA,3111,"prpt",1,"1","","",NA,NA,NA,NA,NA,NA,NA,NA,NA,NA,NA,NA,NA,NA,NA,NA,NA,1,2,23.13,6,99,1,1,1,1,1,1,0.875,0.875,0.875,0.13,1735,1735,1735,2021,2021,2021,-286,3.57142857,3.57142857,4,4,4.75,4.75,6.375,6.375,4.15,4.15,264,2482.33,1786.75,-695.58,1.11587,1.05683,0.01599,0.00337,-1.50783,-2.9881,0.07326,1.54546,-1.80649,27.11292,0.00134,1.11587,1.05683,0.01599,0.00337,-1.50783,-2.9881,0.07326,1.54546,-1.80649,-0.94148,1.10006,0.02891,1.2757,-1.2757,-1.02526,-0.83808,0.91832,0.08168,0.89009,0.86578,0.72336,0.15164,1.45607,0.551,1632.04019,102.95981,-1.40889,0.20666,1830.42869,190.57131,-1.23139,0.23446,4.70926,-1.13783,-0.65597,-1.40895,5.63233,-1.63233,0.05765,-3.02942,4.64524,0.10476,-0.32432,0.1566,4.77165,1.60335,0.56654,1.44103,4.97344,-0.82344,-0.32302,-1.77374,1.11587,1.05683,0.01599,0.00337,-1.50783,-2.9881,0.07326,1.54546,-1.80649,-0.94148,1.10006,0.02891,1.2757,-1.2757,-1.02526,-0.83808,1.34032,NA,NA,1.11587,1.05683,0.01599,0.00337,-1.50783,-2.9881,0.07326,1.54546,-1.80649,-0.94148,1.10006,0.02891,-1.2757,-0.83808,1.34032,1.11587,1.05683,0.01599,0.00337,-1.50783,-2.9881,0.07326,1.54546,-1.80649,-0.94148,1.10006,0.02891,-1.2757,-0.83808,1.34032,-0.67314,0.00694,0.00036,0.01148,0.01148,0.02112,0.0011,0.00036,0.01148,0.02112,0.0011,0.00253,0.01749,0.00159,0.00032,0.01718,0.00696,0.00101,0.00131,0.01718,0.01718,0.01718,0.00696,0.00101,0.00131,0.02,0.05,0.92,0.85,0.02,0.01
"3","101","alexandra","24m2h",2024,6,15,14,54,52,2541,101,23,"female",22,"tpr","prpt",1,0,1912,1912,1912,"elephant2","",1,"","","","","","",1,1912,NA,1912,"prpt",1,"1","","",NA,NA,NA,NA,NA,NA,NA,NA,NA,NA,NA,NA,NA,NA,NA,NA,NA,1,2,23.13,6,99,1,1,1,1,1,1,0.875,0.875,0.875,0.13,1735,1735,1735,2021,2021,2021,-286,3.57142857,3.57142857,4,4,4.75,4.75,6.375,6.375,4.15,4.15,264,2482.33,1786.75,-695.58,1.11587,1.05683,0.01599,0.00337,-1.50783,-2.9881,0.07326,1.54546,-1.80649,27.11292,0.00134,1.11587,1.05683,0.01599,0.00337,-1.50783,-2.9881,0.07326,1.54546,-1.80649,-0.94148,1.10006,0.02891,1.2757,-1.2757,-1.02526,-0.83808,0.91832,0.08168,0.89009,0.86578,0.72336,0.15164,1.45607,0.551,1632.04019,102.95981,-1.40889,0.20666,1830.42869,190.57131,-1.23139,0.23446,4.70926,-1.13783,-0.65597,-1.40895,5.63233,-1.63233,0.05765,-3.02942,4.64524,0.10476,-0.32432,0.1566,4.77165,1.60335,0.56654,1.44103,4.97344,-0.82344,-0.32302,-1.77374,1.11587,1.05683,0.01599,0.00337,-1.50783,-2.9881,0.07326,1.54546,-1.80649,-0.94148,1.10006,0.02891,1.2757,-1.2757,-1.02526,-0.83808,1.34032,NA,NA,1.11587,1.05683,0.01599,0.00337,-1.50783,-2.9881,0.07326,1.54546,-1.80649,-0.94148,1.10006,0.02891,-1.2757,-0.83808,1.34032,1.11587,1.05683,0.01599,0.00337,-1.50783,-2.9881,0.07326,1.54546,-1.80649,-0.94148,1.10006,0.02891,-1.2757,-0.83808,1.34032,-0.67314,0.00694,0.00036,0.01148,0.01148,0.02112,0.0011,0.00036,0.01148,0.02112,0.0011,0.00253,0.01749,0.00159,0.00032,0.01718,0.00696,0.00101,0.00131,0.01718,0.01718,0.01718,0.00696,0.00101,0.00131,0.02,0.05,0.92,0.85,0.02,0.01
"4","101","alexandra","24m2h",2024,6,15,14,54,46,2541,101,23,"female",21,"tpr","inhb",0,0,1119,1119,1119,"elephant","",1,"","","","","","",1,1119,NA,NA,"inhb",0,"","","",NA,NA,NA,NA,NA,NA,NA,NA,NA,NA,NA,NA,NA,NA,NA,NA,NA,1,2,23.13,6,99,1,1,1,1,1,1,0.875,0.875,0.875,0.13,1735,1735,1735,2021,2021,2021,-286,3.57142857,3.57142857,4,4,4.75,4.75,6.375,6.375,4.15,4.15,264,2482.33,1786.75,-695.58,1.11587,1.05683,0.01599,0.00337,-1.50783,-2.9881,0.07326,1.54546,-1.80649,27.11292,0.00134,1.11587,1.05683,0.01599,0.00337,-1.50783,-2.9881,0.07326,1.54546,-1.80649,-0.94148,1.10006,0.02891,1.2757,-1.2757,-1.02526,-0.83808,0.91832,0.08168,0.89009,0.86578,0.72336,0.15164,1.45607,0.551,1632.04019,102.95981,-1.40889,0.20666,1830.42869,190.57131,-1.23139,0.23446,4.70926,-1.13783,-0.65597,-1.40895,5.63233,-1.63233,0.05765,-3.02942,4.64524,0.10476,-0.32432,0.1566,4.77165,1.60335,0.56654,1.44103,4.97344,-0.82344,-0.32302,-1.77374,1.11587,1.05683,0.01599,0.00337,-1.50783,-2.9881,0.07326,1.54546,-1.80649,-0.94148,1.10006,0.02891,1.2757,-1.2757,-1.02526,-0.83808,1.34032,NA,NA,1.11587,1.05683,0.01599,0.00337,-1.50783,-2.9881,0.07326,1.54546,-1.80649,-0.94148,1.10006,0.02891,-1.2757,-0.83808,1.34032,1.11587,1.05683,0.01599,0.00337,-1.50783,-2.9881,0.07326,1.54546,-1.80649,-0.94148,1.10006,0.02891,-1.2757,-0.83808,1.34032,-0.67314,0.00694,0.00036,0.01148,0.01148,0.02112,0.0011,0.00036,0.01148,0.02112,0.0011,0.00253,0.01749,0.00159,0.00032,0.01718,0.00696,0.00101,0.00131,0.01718,0.01718,0.01718,0.00696,0.00101,0.00131,0.02,0.05,0.92,0.85,0.02,0.01
"5","101","alexandra","24m2h",2024,6,15,14,54,40,2541,101,23,"female",20,"tpr","prpt",1,0,1545,1545,1545,"elephant4","",1,"","","","","","",1,1545,NA,1545,"prpt",1,"1","","",NA,NA,NA,NA,NA,NA,NA,NA,NA,NA,NA,NA,NA,NA,NA,NA,NA,1,2,23.13,6,99,1,1,1,1,1,1,0.875,0.875,0.875,0.13,1735,1735,1735,2021,2021,2021,-286,3.57142857,3.57142857,4,4,4.75,4.75,6.375,6.375,4.15,4.15,264,2482.33,1786.75,-695.58,1.11587,1.05683,0.01599,0.00337,-1.50783,-2.9881,0.07326,1.54546,-1.80649,27.11292,0.00134,1.11587,1.05683,0.01599,0.00337,-1.50783,-2.9881,0.07326,1.54546,-1.80649,-0.94148,1.10006,0.02891,1.2757,-1.2757,-1.02526,-0.83808,0.91832,0.08168,0.89009,0.86578,0.72336,0.15164,1.45607,0.551,1632.04019,102.95981,-1.40889,0.20666,1830.42869,190.57131,-1.23139,0.23446,4.70926,-1.13783,-0.65597,-1.40895,5.63233,-1.63233,0.05765,-3.02942,4.64524,0.10476,-0.32432,0.1566,4.77165,1.60335,0.56654,1.44103,4.97344,-0.82344,-0.32302,-1.77374,1.11587,1.05683,0.01599,0.00337,-1.50783,-2.9881,0.07326,1.54546,-1.80649,-0.94148,1.10006,0.02891,1.2757,-1.2757,-1.02526,-0.83808,1.34032,NA,NA,1.11587,1.05683,0.01599,0.00337,-1.50783,-2.9881,0.07326,1.54546,-1.80649,-0.94148,1.10006,0.02891,-1.2757,-0.83808,1.34032,1.11587,1.05683,0.01599,0.00337,-1.50783,-2.9881,0.07326,1.54546,-1.80649,-0.94148,1.10006,0.02891,-1.2757,-0.83808,1.34032,-0.67314,0.00694,0.00036,0.01148,0.01148,0.02112,0.0011,0.00036,0.01148,0.02112,0.0011,0.00253,0.01749,0.00159,0.00032,0.01718,0.00696,0.00101,0.00131,0.01718,0.01718,0.01718,0.00696,0.00101,0.00131,0.02,0.05,0.92,0.85,0.02,0.01
"6","101","alexandra","24m2h",2024,6,15,14,54,27,2541,101,23,"female",18,"tpr","prpt",1,0,2373,2373,2373,"elephant2","",1,"","","","","","",1,2373,NA,2373,"prpt",1,"1","","",NA,NA,NA,NA,NA,NA,NA,NA,NA,NA,NA,NA,NA,NA,NA,NA,NA,1,2,23.13,6,99,1,1,1,1,1,1,0.875,0.875,0.875,0.13,1735,1735,1735,2021,2021,2021,-286,3.57142857,3.57142857,4,4,4.75,4.75,6.375,6.375,4.15,4.15,264,2482.33,1786.75,-695.58,1.11587,1.05683,0.01599,0.00337,-1.50783,-2.9881,0.07326,1.54546,-1.80649,27.11292,0.00134,1.11587,1.05683,0.01599,0.00337,-1.50783,-2.9881,0.07326,1.54546,-1.80649,-0.94148,1.10006,0.02891,1.2757,-1.2757,-1.02526,-0.83808,0.91832,0.08168,0.89009,0.86578,0.72336,0.15164,1.45607,0.551,1632.04019,102.95981,-1.40889,0.20666,1830.42869,190.57131,-1.23139,0.23446,4.70926,-1.13783,-0.65597,-1.40895,5.63233,-1.63233,0.05765,-3.02942,4.64524,0.10476,-0.32432,0.1566,4.77165,1.60335,0.56654,1.44103,4.97344,-0.82344,-0.32302,-1.77374,1.11587,1.05683,0.01599,0.00337,-1.50783,-2.9881,0.07326,1.54546,-1.80649,-0.94148,1.10006,0.02891,1.2757,-1.2757,-1.02526,-0.83808,1.34032,NA,NA,1.11587,1.05683,0.01599,0.00337,-1.50783,-2.9881,0.07326,1.54546,-1.80649,-0.94148,1.10006,0.02891,-1.2757,-0.83808,1.34032,1.11587,1.05683,0.01599,0.00337,-1.50783,-2.9881,0.07326,1.54546,-1.80649,-0.94148,1.10006,0.02891,-1.2757,-0.83808,1.34032,-0.67314,0.00694,0.00036,0.01148,0.01148,0.02112,0.0011,0.00036,0.01148,0.02112,0.0011,0.00253,0.01749,0.00159,0.00032,0.01718,0.00696,0.00101,0.00131,0.01718,0.01718,0.01718,0.00696,0.00101,0.00131,0.02,0.05,0.92,0.85,0.02,0.01
"7","101","alexandra","24m2h",2024,6,15,14,55,44,2541,101,23,"female",30,"tpr","prpt",1,0,1719,1719,1719,"elephant","",1,"","","","","","",1,1719,NA,1719,"prpt",1,"1","","",NA,NA,NA,NA,NA,NA,NA,NA,NA,NA,NA,NA,NA,NA,NA,NA,NA,1,2,23.13,6,99,1,1,1,1,1,1,0.875,0.875,0.875,0.13,1735,1735,1735,2021,2021,2021,-286,3.57142857,3.57142857,4,4,4.75,4.75,6.375,6.375,4.15,4.15,264,2482.33,1786.75,-695.58,1.11587,1.05683,0.01599,0.00337,-1.50783,-2.9881,0.07326,1.54546,-1.80649,27.11292,0.00134,1.11587,1.05683,0.01599,0.00337,-1.50783,-2.9881,0.07326,1.54546,-1.80649,-0.94148,1.10006,0.02891,1.2757,-1.2757,-1.02526,-0.83808,0.91832,0.08168,0.89009,0.86578,0.72336,0.15164,1.45607,0.551,1632.04019,102.95981,-1.40889,0.20666,1830.42869,190.57131,-1.23139,0.23446,4.70926,-1.13783,-0.65597,-1.40895,5.63233,-1.63233,0.05765,-3.02942,4.64524,0.10476,-0.32432,0.1566,4.77165,1.60335,0.56654,1.44103,4.97344,-0.82344,-0.32302,-1.77374,1.11587,1.05683,0.01599,0.00337,-1.50783,-2.9881,0.07326,1.54546,-1.80649,-0.94148,1.10006,0.02891,1.2757,-1.2757,-1.02526,-0.83808,1.34032,NA,NA,1.11587,1.05683,0.01599,0.00337,-1.50783,-2.9881,0.07326,1.54546,-1.80649,-0.94148,1.10006,0.02891,-1.2757,-0.83808,1.34032,1.11587,1.05683,0.01599,0.00337,-1.50783,-2.9881,0.07326,1.54546,-1.80649,-0.94148,1.10006,0.02891,-1.2757,-0.83808,1.34032,-0.67314,0.00694,0.00036,0.01148,0.01148,0.02112,0.0011,0.00036,0.01148,0.02112,0.0011,0.00253,0.01749,0.00159,0.00032,0.01718,0.00696,0.00101,0.00131,0.01718,0.01718,0.01718,0.00696,0.00101,0.00131,0.02,0.05,0.92,0.85,0.02,0.01
"8","101","alexandra","24m2h",2024,6,15,14,52,46,2541,101,23,"female",2,"tpr","prpt",1,0,2327,2328,2328,"elephant2","",1,"","","","","","",1,2328,NA,2358,"prpt",1,"1","","",NA,NA,NA,NA,NA,NA,NA,NA,NA,NA,NA,NA,NA,NA,NA,NA,NA,1,2,23.13,6,99,1,1,1,1,1,1,0.875,0.875,0.875,0.13,1735,1735,1735,2021,2021,2021,-286,3.57142857,3.57142857,4,4,4.75,4.75,6.375,6.375,4.15,4.15,264,2482.33,1786.75,-695.58,1.11587,1.05683,0.01599,0.00337,-1.50783,-2.9881,0.07326,1.54546,-1.80649,27.11292,0.00134,1.11587,1.05683,0.01599,0.00337,-1.50783,-2.9881,0.07326,1.54546,-1.80649,-0.94148,1.10006,0.02891,1.2757,-1.2757,-1.02526,-0.83808,0.91832,0.08168,0.89009,0.86578,0.72336,0.15164,1.45607,0.551,1632.04019,102.95981,-1.40889,0.20666,1830.42869,190.57131,-1.23139,0.23446,4.70926,-1.13783,-0.65597,-1.40895,5.63233,-1.63233,0.05765,-3.02942,4.64524,0.10476,-0.32432,0.1566,4.77165,1.60335,0.56654,1.44103,4.97344,-0.82344,-0.32302,-1.77374,1.11587,1.05683,0.01599,0.00337,-1.50783,-2.9881,0.07326,1.54546,-1.80649,-0.94148,1.10006,0.02891,1.2757,-1.2757,-1.02526,-0.83808,1.34032,NA,NA,1.11587,1.05683,0.01599,0.00337,-1.50783,-2.9881,0.07326,1.54546,-1.80649,-0.94148,1.10006,0.02891,-1.2757,-0.83808,1.34032,1.11587,1.05683,0.01599,0.00337,-1.50783,-2.9881,0.07326,1.54546,-1.80649,-0.94148,1.10006,0.02891,-1.2757,-0.83808,1.34032,-0.67314,0.00694,0.00036,0.01148,0.01148,0.02112,0.0011,0.00036,0.01148,0.02112,0.0011,0.00253,0.01749,0.00159,0.00032,0.01718,0.00696,0.00101,0.00131,0.01718,0.01718,0.01718,0.00696,0.00101,0.00131,0.02,0.05,0.92,0.85,0.02,0.01
"9","101","alexandra","24m2h",2024,6,15,14,54,10,2541,101,23,"female",15,"tpr","prpt",1,0,1334,1334,1334,"bus","",1,"","","","","","",1,1334,NA,1334,"prpt",1,"1","","",NA,NA,NA,NA,NA,NA,NA,NA,NA,NA,NA,NA,NA,NA,NA,NA,NA,1,2,23.13,6,99,1,1,1,1,1,1,0.875,0.875,0.875,0.13,1735,1735,1735,2021,2021,2021,-286,3.57142857,3.57142857,4,4,4.75,4.75,6.375,6.375,4.15,4.15,264,2482.33,1786.75,-695.58,1.11587,1.05683,0.01599,0.00337,-1.50783,-2.9881,0.07326,1.54546,-1.80649,27.11292,0.00134,1.11587,1.05683,0.01599,0.00337,-1.50783,-2.9881,0.07326,1.54546,-1.80649,-0.94148,1.10006,0.02891,1.2757,-1.2757,-1.02526,-0.83808,0.91832,0.08168,0.89009,0.86578,0.72336,0.15164,1.45607,0.551,1632.04019,102.95981,-1.40889,0.20666,1830.42869,190.57131,-1.23139,0.23446,4.70926,-1.13783,-0.65597,-1.40895,5.63233,-1.63233,0.05765,-3.02942,4.64524,0.10476,-0.32432,0.1566,4.77165,1.60335,0.56654,1.44103,4.97344,-0.82344,-0.32302,-1.77374,1.11587,1.05683,0.01599,0.00337,-1.50783,-2.9881,0.07326,1.54546,-1.80649,-0.94148,1.10006,0.02891,1.2757,-1.2757,-1.02526,-0.83808,1.34032,NA,NA,1.11587,1.05683,0.01599,0.00337,-1.50783,-2.9881,0.07326,1.54546,-1.80649,-0.94148,1.10006,0.02891,-1.2757,-0.83808,1.34032,1.11587,1.05683,0.01599,0.00337,-1.50783,-2.9881,0.07326,1.54546,-1.80649,-0.94148,1.10006,0.02891,-1.2757,-0.83808,1.34032,-0.67314,0.00694,0.00036,0.01148,0.01148,0.02112,0.0011,0.00036,0.01148,0.02112,0.0011,0.00253,0.01749,0.00159,0.00032,0.01718,0.00696,0.00101,0.00131,0.01718,0.01718,0.01718,0.00696,0.00101,0.00131,0.02,0.05,0.92,0.85,0.02,0.01
"10","101","alexandra","24m2h",2024,6,15,14,53,23,2541,101,23,"female",8,"tpr","prpt",1,0,2839,2839,2839,"flower","",1,"","","","","","",1,2839,NA,2839,"prpt",1,"1","","",NA,NA,NA,NA,NA,NA,NA,NA,NA,NA,NA,NA,NA,NA,NA,NA,NA,1,2,23.13,6,99,1,1,1,1,1,1,0.875,0.875,0.875,0.13,1735,1735,1735,2021,2021,2021,-286,3.57142857,3.57142857,4,4,4.75,4.75,6.375,6.375,4.15,4.15,264,2482.33,1786.75,-695.58,1.11587,1.05683,0.01599,0.00337,-1.50783,-2.9881,0.07326,1.54546,-1.80649,27.11292,0.00134,1.11587,1.05683,0.01599,0.00337,-1.50783,-2.9881,0.07326,1.54546,-1.80649,-0.94148,1.10006,0.02891,1.2757,-1.2757,-1.02526,-0.83808,0.91832,0.08168,0.89009,0.86578,0.72336,0.15164,1.45607,0.551,1632.04019,102.95981,-1.40889,0.20666,1830.42869,190.57131,-1.23139,0.23446,4.70926,-1.13783,-0.65597,-1.40895,5.63233,-1.63233,0.05765,-3.02942,4.64524,0.10476,-0.32432,0.1566,4.77165,1.60335,0.56654,1.44103,4.97344,-0.82344,-0.32302,-1.77374,1.11587,1.05683,0.01599,0.00337,-1.50783,-2.9881,0.07326,1.54546,-1.80649,-0.94148,1.10006,0.02891,1.2757,-1.2757,-1.02526,-0.83808,1.34032,NA,NA,1.11587,1.05683,0.01599,0.00337,-1.50783,-2.9881,0.07326,1.54546,-1.80649,-0.94148,1.10006,0.02891,-1.2757,-0.83808,1.34032,1.11587,1.05683,0.01599,0.00337,-1.50783,-2.9881,0.07326,1.54546,-1.80649,-0.94148,1.10006,0.02891,-1.2757,-0.83808,1.34032,-0.67314,0.00694,0.00036,0.01148,0.01148,0.02112,0.0011,0.00036,0.01148,0.02112,0.0011,0.00253,0.01749,0.00159,0.00032,0.01718,0.00696,0.00101,0.00131,0.01718,0.01718,0.01718,0.00696,0.00101,0.00131,0.02,0.05,0.92,0.85,0.02,0.01
"11","101","alexandra","24m2h",2024,6,15,14,49,17,2541,101,23,"female",1,"prr","",1,0,5135,5135,5135,"elephant2","",1,"","","","","","",0,5135,NA,NA,"",1,"","","",NA,NA,NA,NA,NA,NA,NA,NA,NA,NA,NA,NA,NA,NA,NA,NA,NA,1,2,23.13,6,99,1,1,1,1,1,1,0.875,0.875,0.875,0.13,1735,1735,1735,2021,2021,2021,-286,3.57142857,3.57142857,4,4,4.75,4.75,6.375,6.375,4.15,4.15,264,2482.33,1786.75,-695.58,1.11587,1.05683,0.01599,0.00337,-1.50783,-2.9881,0.07326,1.54546,-1.80649,27.11292,0.00134,1.11587,1.05683,0.01599,0.00337,-1.50783,-2.9881,0.07326,1.54546,-1.80649,-0.94148,1.10006,0.02891,1.2757,-1.2757,-1.02526,-0.83808,0.91832,0.08168,0.89009,0.86578,0.72336,0.15164,1.45607,0.551,1632.04019,102.95981,-1.40889,0.20666,1830.42869,190.57131,-1.23139,0.23446,4.70926,-1.13783,-0.65597,-1.40895,5.63233,-1.63233,0.05765,-3.02942,4.64524,0.10476,-0.32432,0.1566,4.77165,1.60335,0.56654,1.44103,4.97344,-0.82344,-0.32302,-1.77374,1.11587,1.05683,0.01599,0.00337,-1.50783,-2.9881,0.07326,1.54546,-1.80649,-0.94148,1.10006,0.02891,1.2757,-1.2757,-1.02526,-0.83808,1.34032,NA,NA,1.11587,1.05683,0.01599,0.00337,-1.50783,-2.9881,0.07326,1.54546,-1.80649,-0.94148,1.10006,0.02891,-1.2757,-0.83808,1.34032,1.11587,1.05683,0.01599,0.00337,-1.50783,-2.9881,0.07326,1.54546,-1.80649,-0.94148,1.10006,0.02891,-1.2757,-0.83808,1.34032,-0.67314,0.00694,0.00036,0.01148,0.01148,0.02112,0.0011,0.00036,0.01148,0.02112,0.0011,0.00253,0.01749,0.00159,0.00032,0.01718,0.00696,0.00101,0.00131,0.01718,0.01718,0.01718,0.00696,0.00101,0.00131,0.02,0.05,0.92,0.85,0.02,0.01
"12","101","alexandra","24m2h",2024,6,15,14,53,17,2541,101,23,"female",7,"tpr","inhb",1,0,1513,1513,1513,"apple","",1,"","","","","","",1,1513,1513,NA,"inhb",1,"","1","",NA,NA,NA,NA,NA,NA,NA,NA,NA,NA,NA,NA,NA,NA,NA,NA,NA,1,2,23.13,6,99,1,1,1,1,1,1,0.875,0.875,0.875,0.13,1735,1735,1735,2021,2021,2021,-286,3.57142857,3.57142857,4,4,4.75,4.75,6.375,6.375,4.15,4.15,264,2482.33,1786.75,-695.58,1.11587,1.05683,0.01599,0.00337,-1.50783,-2.9881,0.07326,1.54546,-1.80649,27.11292,0.00134,1.11587,1.05683,0.01599,0.00337,-1.50783,-2.9881,0.07326,1.54546,-1.80649,-0.94148,1.10006,0.02891,1.2757,-1.2757,-1.02526,-0.83808,0.91832,0.08168,0.89009,0.86578,0.72336,0.15164,1.45607,0.551,1632.04019,102.95981,-1.40889,0.20666,1830.42869,190.57131,-1.23139,0.23446,4.70926,-1.13783,-0.65597,-1.40895,5.63233,-1.63233,0.05765,-3.02942,4.64524,0.10476,-0.32432,0.1566,4.77165,1.60335,0.56654,1.44103,4.97344,-0.82344,-0.32302,-1.77374,1.11587,1.05683,0.01599,0.00337,-1.50783,-2.9881,0.07326,1.54546,-1.80649,-0.94148,1.10006,0.02891,1.2757,-1.2757,-1.02526,-0.83808,1.34032,NA,NA,1.11587,1.05683,0.01599,0.00337,-1.50783,-2.9881,0.07326,1.54546,-1.80649,-0.94148,1.10006,0.02891,-1.2757,-0.83808,1.34032,1.11587,1.05683,0.01599,0.00337,-1.50783,-2.9881,0.07326,1.54546,-1.80649,-0.94148,1.10006,0.02891,-1.2757,-0.83808,1.34032,-0.67314,0.00694,0.00036,0.01148,0.01148,0.02112,0.0011,0.00036,0.01148,0.02112,0.0011,0.00253,0.01749,0.00159,0.00032,0.01718,0.00696,0.00101,0.00131,0.01718,0.01718,0.01718,0.00696,0.00101,0.00131,0.02,0.05,0.92,0.85,0.02,0.01
"13","101","alexandra","24m2h",2024,6,15,14,53,4,2541,101,23,"female",5,"tpr","prpt",1,0,1688,1688,1688,"elephant2","",1,"","","","","","",1,1688,NA,1688,"prpt",1,"1","","",NA,NA,NA,NA,NA,NA,NA,NA,NA,NA,NA,NA,NA,NA,NA,NA,NA,1,2,23.13,6,99,1,1,1,1,1,1,0.875,0.875,0.875,0.13,1735,1735,1735,2021,2021,2021,-286,3.57142857,3.57142857,4,4,4.75,4.75,6.375,6.375,4.15,4.15,264,2482.33,1786.75,-695.58,1.11587,1.05683,0.01599,0.00337,-1.50783,-2.9881,0.07326,1.54546,-1.80649,27.11292,0.00134,1.11587,1.05683,0.01599,0.00337,-1.50783,-2.9881,0.07326,1.54546,-1.80649,-0.94148,1.10006,0.02891,1.2757,-1.2757,-1.02526,-0.83808,0.91832,0.08168,0.89009,0.86578,0.72336,0.15164,1.45607,0.551,1632.04019,102.95981,-1.40889,0.20666,1830.42869,190.57131,-1.23139,0.23446,4.70926,-1.13783,-0.65597,-1.40895,5.63233,-1.63233,0.05765,-3.02942,4.64524,0.10476,-0.32432,0.1566,4.77165,1.60335,0.56654,1.44103,4.97344,-0.82344,-0.32302,-1.77374,1.11587,1.05683,0.01599,0.00337,-1.50783,-2.9881,0.07326,1.54546,-1.80649,-0.94148,1.10006,0.02891,1.2757,-1.2757,-1.02526,-0.83808,1.34032,NA,NA,1.11587,1.05683,0.01599,0.00337,-1.50783,-2.9881,0.07326,1.54546,-1.80649,-0.94148,1.10006,0.02891,-1.2757,-0.83808,1.34032,1.11587,1.05683,0.01599,0.00337,-1.50783,-2.9881,0.07326,1.54546,-1.80649,-0.94148,1.10006,0.02891,-1.2757,-0.83808,1.34032,-0.67314,0.00694,0.00036,0.01148,0.01148,0.02112,0.0011,0.00036,0.01148,0.02112,0.0011,0.00253,0.01749,0.00159,0.00032,0.01718,0.00696,0.00101,0.00131,0.01718,0.01718,0.01718,0.00696,0.00101,0.00131,0.02,0.05,0.92,0.85,0.02,0.01
"14","101","alexandra","24m2h",2024,6,15,14,49,3,2541,101,23,"female",1,"prr","#NAME?",1,0,6123,6124,6124,"elephant4","left ",1,"none","none","none","none","none","none",0,6124,NA,NA,"",1,"","","AP",NA,NA,NA,NA,NA,NA,NA,NA,NA,NA,NA,NA,NA,NA,NA,NA,NA,1,2,23.13,6,99,1,1,1,1,1,1,0.875,0.875,0.875,0.13,1735,1735,1735,2021,2021,2021,-286,3.57142857,3.57142857,4,4,4.75,4.75,6.375,6.375,4.15,4.15,264,2482.33,1786.75,-695.58,1.11587,1.05683,0.01599,0.00337,-1.50783,-2.9881,0.07326,1.54546,-1.80649,27.11292,0.00134,1.11587,1.05683,0.01599,0.00337,-1.50783,-2.9881,0.07326,1.54546,-1.80649,-0.94148,1.10006,0.02891,1.2757,-1.2757,-1.02526,-0.83808,0.91832,0.08168,0.89009,0.86578,0.72336,0.15164,1.45607,0.551,1632.04019,102.95981,-1.40889,0.20666,1830.42869,190.57131,-1.23139,0.23446,4.70926,-1.13783,-0.65597,-1.40895,5.63233,-1.63233,0.05765,-3.02942,4.64524,0.10476,-0.32432,0.1566,4.77165,1.60335,0.56654,1.44103,4.97344,-0.82344,-0.32302,-1.77374,1.11587,1.05683,0.01599,0.00337,-1.50783,-2.9881,0.07326,1.54546,-1.80649,-0.94148,1.10006,0.02891,1.2757,-1.2757,-1.02526,-0.83808,1.34032,NA,NA,1.11587,1.05683,0.01599,0.00337,-1.50783,-2.9881,0.07326,1.54546,-1.80649,-0.94148,1.10006,0.02891,-1.2757,-0.83808,1.34032,1.11587,1.05683,0.01599,0.00337,-1.50783,-2.9881,0.07326,1.54546,-1.80649,-0.94148,1.10006,0.02891,-1.2757,-0.83808,1.34032,-0.67314,0.00694,0.00036,0.01148,0.01148,0.02112,0.0011,0.00036,0.01148,0.02112,0.0011,0.00253,0.01749,0.00159,0.00032,0.01718,0.00696,0.00101,0.00131,0.01718,0.01718,0.01718,0.00696,0.00101,0.00131,0.02,0.05,0.92,0.85,0.02,0.01
"15","101","alexandra","24m2h",2024,6,15,14,54,15,2541,101,23,"female",16,"tpr","inhb",1,0,1638,1638,1638,"elephant4","",1,"","","","","","",1,1638,1638,NA,"inhb",1,"","1","",NA,NA,NA,NA,NA,NA,NA,NA,NA,NA,NA,NA,NA,NA,NA,NA,NA,1,2,23.13,6,99,1,1,1,1,1,1,0.875,0.875,0.875,0.13,1735,1735,1735,2021,2021,2021,-286,3.57142857,3.57142857,4,4,4.75,4.75,6.375,6.375,4.15,4.15,264,2482.33,1786.75,-695.58,1.11587,1.05683,0.01599,0.00337,-1.50783,-2.9881,0.07326,1.54546,-1.80649,27.11292,0.00134,1.11587,1.05683,0.01599,0.00337,-1.50783,-2.9881,0.07326,1.54546,-1.80649,-0.94148,1.10006,0.02891,1.2757,-1.2757,-1.02526,-0.83808,0.91832,0.08168,0.89009,0.86578,0.72336,0.15164,1.45607,0.551,1632.04019,102.95981,-1.40889,0.20666,1830.42869,190.57131,-1.23139,0.23446,4.70926,-1.13783,-0.65597,-1.40895,5.63233,-1.63233,0.05765,-3.02942,4.64524,0.10476,-0.32432,0.1566,4.77165,1.60335,0.56654,1.44103,4.97344,-0.82344,-0.32302,-1.77374,1.11587,1.05683,0.01599,0.00337,-1.50783,-2.9881,0.07326,1.54546,-1.80649,-0.94148,1.10006,0.02891,1.2757,-1.2757,-1.02526,-0.83808,1.34032,NA,NA,1.11587,1.05683,0.01599,0.00337,-1.50783,-2.9881,0.07326,1.54546,-1.80649,-0.94148,1.10006,0.02891,-1.2757,-0.83808,1.34032,1.11587,1.05683,0.01599,0.00337,-1.50783,-2.9881,0.07326,1.54546,-1.80649,-0.94148,1.10006,0.02891,-1.2757,-0.83808,1.34032,-0.67314,0.00694,0.00036,0.01148,0.01148,0.02112,0.0011,0.00036,0.01148,0.02112,0.0011,0.00253,0.01749,0.00159,0.00032,0.01718,0.00696,0.00101,0.00131,0.01718,0.01718,0.01718,0.00696,0.00101,0.00131,0.02,0.05,0.92,0.85,0.02,0.01
"16","101","alexandra","24m2h",2024,6,15,14,52,27,2541,101,23,"female",1,"prr","",1,0,6591,6591,6591,"elephant2","",1,"","","","","","",0,6591,NA,NA,"",1,"","","",NA,NA,NA,NA,NA,NA,NA,NA,NA,NA,NA,NA,NA,NA,NA,NA,NA,1,2,23.13,6,99,1,1,1,1,1,1,0.875,0.875,0.875,0.13,1735,1735,1735,2021,2021,2021,-286,3.57142857,3.57142857,4,4,4.75,4.75,6.375,6.375,4.15,4.15,264,2482.33,1786.75,-695.58,1.11587,1.05683,0.01599,0.00337,-1.50783,-2.9881,0.07326,1.54546,-1.80649,27.11292,0.00134,1.11587,1.05683,0.01599,0.00337,-1.50783,-2.9881,0.07326,1.54546,-1.80649,-0.94148,1.10006,0.02891,1.2757,-1.2757,-1.02526,-0.83808,0.91832,0.08168,0.89009,0.86578,0.72336,0.15164,1.45607,0.551,1632.04019,102.95981,-1.40889,0.20666,1830.42869,190.57131,-1.23139,0.23446,4.70926,-1.13783,-0.65597,-1.40895,5.63233,-1.63233,0.05765,-3.02942,4.64524,0.10476,-0.32432,0.1566,4.77165,1.60335,0.56654,1.44103,4.97344,-0.82344,-0.32302,-1.77374,1.11587,1.05683,0.01599,0.00337,-1.50783,-2.9881,0.07326,1.54546,-1.80649,-0.94148,1.10006,0.02891,1.2757,-1.2757,-1.02526,-0.83808,1.34032,NA,NA,1.11587,1.05683,0.01599,0.00337,-1.50783,-2.9881,0.07326,1.54546,-1.80649,-0.94148,1.10006,0.02891,-1.2757,-0.83808,1.34032,1.11587,1.05683,0.01599,0.00337,-1.50783,-2.9881,0.07326,1.54546,-1.80649,-0.94148,1.10006,0.02891,-1.2757,-0.83808,1.34032,-0.67314,0.00694,0.00036,0.01148,0.01148,0.02112,0.0011,0.00036,0.01148,0.02112,0.0011,0.00253,0.01749,0.00159,0.00032,0.01718,0.00696,0.00101,0.00131,0.01718,0.01718,0.01718,0.00696,0.00101,0.00131,0.02,0.05,0.92,0.85,0.02,0.01
"17","101","alexandra","24m2h",2024,6,15,14,54,59,2541,101,23,"female",23,"tpr","prpt",1,0,1933,1933,1933,"elephant","",1,"","","","","","",1,1933,NA,1933,"prpt",1,"1","","",NA,NA,NA,NA,NA,NA,NA,NA,NA,NA,NA,NA,NA,NA,NA,NA,NA,1,2,23.13,6,99,1,1,1,1,1,1,0.875,0.875,0.875,0.13,1735,1735,1735,2021,2021,2021,-286,3.57142857,3.57142857,4,4,4.75,4.75,6.375,6.375,4.15,4.15,264,2482.33,1786.75,-695.58,1.11587,1.05683,0.01599,0.00337,-1.50783,-2.9881,0.07326,1.54546,-1.80649,27.11292,0.00134,1.11587,1.05683,0.01599,0.00337,-1.50783,-2.9881,0.07326,1.54546,-1.80649,-0.94148,1.10006,0.02891,1.2757,-1.2757,-1.02526,-0.83808,0.91832,0.08168,0.89009,0.86578,0.72336,0.15164,1.45607,0.551,1632.04019,102.95981,-1.40889,0.20666,1830.42869,190.57131,-1.23139,0.23446,4.70926,-1.13783,-0.65597,-1.40895,5.63233,-1.63233,0.05765,-3.02942,4.64524,0.10476,-0.32432,0.1566,4.77165,1.60335,0.56654,1.44103,4.97344,-0.82344,-0.32302,-1.77374,1.11587,1.05683,0.01599,0.00337,-1.50783,-2.9881,0.07326,1.54546,-1.80649,-0.94148,1.10006,0.02891,1.2757,-1.2757,-1.02526,-0.83808,1.34032,NA,NA,1.11587,1.05683,0.01599,0.00337,-1.50783,-2.9881,0.07326,1.54546,-1.80649,-0.94148,1.10006,0.02891,-1.2757,-0.83808,1.34032,1.11587,1.05683,0.01599,0.00337,-1.50783,-2.9881,0.07326,1.54546,-1.80649,-0.94148,1.10006,0.02891,-1.2757,-0.83808,1.34032,-0.67314,0.00694,0.00036,0.01148,0.01148,0.02112,0.0011,0.00036,0.01148,0.02112,0.0011,0.00253,0.01749,0.00159,0.00032,0.01718,0.00696,0.00101,0.00131,0.01718,0.01718,0.01718,0.00696,0.00101,0.00131,0.02,0.05,0.92,0.85,0.02,0.01
"18","101","alexandra","24m2h",2024,6,15,14,51,34,2541,101,23,"female",1,"prr","",1,0,39481,39481,39481,"elephant","",1,"","","","","","",0,39481,NA,NA,"",1,"","","",NA,NA,NA,NA,NA,NA,NA,NA,NA,NA,NA,NA,NA,NA,NA,NA,NA,1,2,23.13,6,99,1,1,1,1,1,1,0.875,0.875,0.875,0.13,1735,1735,1735,2021,2021,2021,-286,3.57142857,3.57142857,4,4,4.75,4.75,6.375,6.375,4.15,4.15,264,2482.33,1786.75,-695.58,1.11587,1.05683,0.01599,0.00337,-1.50783,-2.9881,0.07326,1.54546,-1.80649,27.11292,0.00134,1.11587,1.05683,0.01599,0.00337,-1.50783,-2.9881,0.07326,1.54546,-1.80649,-0.94148,1.10006,0.02891,1.2757,-1.2757,-1.02526,-0.83808,0.91832,0.08168,0.89009,0.86578,0.72336,0.15164,1.45607,0.551,1632.04019,102.95981,-1.40889,0.20666,1830.42869,190.57131,-1.23139,0.23446,4.70926,-1.13783,-0.65597,-1.40895,5.63233,-1.63233,0.05765,-3.02942,4.64524,0.10476,-0.32432,0.1566,4.77165,1.60335,0.56654,1.44103,4.97344,-0.82344,-0.32302,-1.77374,1.11587,1.05683,0.01599,0.00337,-1.50783,-2.9881,0.07326,1.54546,-1.80649,-0.94148,1.10006,0.02891,1.2757,-1.2757,-1.02526,-0.83808,1.34032,NA,NA,1.11587,1.05683,0.01599,0.00337,-1.50783,-2.9881,0.07326,1.54546,-1.80649,-0.94148,1.10006,0.02891,-1.2757,-0.83808,1.34032,1.11587,1.05683,0.01599,0.00337,-1.50783,-2.9881,0.07326,1.54546,-1.80649,-0.94148,1.10006,0.02891,-1.2757,-0.83808,1.34032,-0.67314,0.00694,0.00036,0.01148,0.01148,0.02112,0.0011,0.00036,0.01148,0.02112,0.0011,0.00253,0.01749,0.00159,0.00032,0.01718,0.00696,0.00101,0.00131,0.01718,0.01718,0.01718,0.00696,0.00101,0.00131,0.02,0.05,0.92,0.85,0.02,0.01
"19","101","alexandra","24m2h",2024,6,15,14,55,31,2541,101,23,"female",28,"tpr","prpt",1,0,1561,1561,1561,"apple","",1,"","","","","","",1,1561,NA,1561,"prpt",1,"1","","",NA,NA,NA,NA,NA,NA,NA,NA,NA,NA,NA,NA,NA,NA,NA,NA,NA,1,2,23.13,6,99,1,1,1,1,1,1,0.875,0.875,0.875,0.13,1735,1735,1735,2021,2021,2021,-286,3.57142857,3.57142857,4,4,4.75,4.75,6.375,6.375,4.15,4.15,264,2482.33,1786.75,-695.58,1.11587,1.05683,0.01599,0.00337,-1.50783,-2.9881,0.07326,1.54546,-1.80649,27.11292,0.00134,1.11587,1.05683,0.01599,0.00337,-1.50783,-2.9881,0.07326,1.54546,-1.80649,-0.94148,1.10006,0.02891,1.2757,-1.2757,-1.02526,-0.83808,0.91832,0.08168,0.89009,0.86578,0.72336,0.15164,1.45607,0.551,1632.04019,102.95981,-1.40889,0.20666,1830.42869,190.57131,-1.23139,0.23446,4.70926,-1.13783,-0.65597,-1.40895,5.63233,-1.63233,0.05765,-3.02942,4.64524,0.10476,-0.32432,0.1566,4.77165,1.60335,0.56654,1.44103,4.97344,-0.82344,-0.32302,-1.77374,1.11587,1.05683,0.01599,0.00337,-1.50783,-2.9881,0.07326,1.54546,-1.80649,-0.94148,1.10006,0.02891,1.2757,-1.2757,-1.02526,-0.83808,1.34032,NA,NA,1.11587,1.05683,0.01599,0.00337,-1.50783,-2.9881,0.07326,1.54546,-1.80649,-0.94148,1.10006,0.02891,-1.2757,-0.83808,1.34032,1.11587,1.05683,0.01599,0.00337,-1.50783,-2.9881,0.07326,1.54546,-1.80649,-0.94148,1.10006,0.02891,-1.2757,-0.83808,1.34032,-0.67314,0.00694,0.00036,0.01148,0.01148,0.02112,0.0011,0.00036,0.01148,0.02112,0.0011,0.00253,0.01749,0.00159,0.00032,0.01718,0.00696,0.00101,0.00131,0.01718,0.01718,0.01718,0.00696,0.00101,0.00131,0.02,0.05,0.92,0.85,0.02,0.01
"20","101","alexandra","24m2h",2024,6,15,14,55,25,2541,101,23,"female",27,"tpr","inhb",1,0,2242,2243,2243,"apple","",1,"","","","","","",1,2243,2243,NA,"inhb",1,"","1","",NA,NA,NA,NA,NA,NA,NA,NA,NA,NA,NA,NA,NA,NA,NA,NA,NA,1,2,23.13,6,99,1,1,1,1,1,1,0.875,0.875,0.875,0.13,1735,1735,1735,2021,2021,2021,-286,3.57142857,3.57142857,4,4,4.75,4.75,6.375,6.375,4.15,4.15,264,2482.33,1786.75,-695.58,1.11587,1.05683,0.01599,0.00337,-1.50783,-2.9881,0.07326,1.54546,-1.80649,27.11292,0.00134,1.11587,1.05683,0.01599,0.00337,-1.50783,-2.9881,0.07326,1.54546,-1.80649,-0.94148,1.10006,0.02891,1.2757,-1.2757,-1.02526,-0.83808,0.91832,0.08168,0.89009,0.86578,0.72336,0.15164,1.45607,0.551,1632.04019,102.95981,-1.40889,0.20666,1830.42869,190.57131,-1.23139,0.23446,4.70926,-1.13783,-0.65597,-1.40895,5.63233,-1.63233,0.05765,-3.02942,4.64524,0.10476,-0.32432,0.1566,4.77165,1.60335,0.56654,1.44103,4.97344,-0.82344,-0.32302,-1.77374,1.11587,1.05683,0.01599,0.00337,-1.50783,-2.9881,0.07326,1.54546,-1.80649,-0.94148,1.10006,0.02891,1.2757,-1.2757,-1.02526,-0.83808,1.34032,NA,NA,1.11587,1.05683,0.01599,0.00337,-1.50783,-2.9881,0.07326,1.54546,-1.80649,-0.94148,1.10006,0.02891,-1.2757,-0.83808,1.34032,1.11587,1.05683,0.01599,0.00337,-1.50783,-2.9881,0.07326,1.54546,-1.80649,-0.94148,1.10006,0.02891,-1.2757,-0.83808,1.34032,-0.67314,0.00694,0.00036,0.01148,0.01148,0.02112,0.0011,0.00036,0.01148,0.02112,0.0011,0.00253,0.01749,0.00159,0.00032,0.01718,0.00696,0.00101,0.00131,0.01718,0.01718,0.01718,0.00696,0.00101,0.00131,0.02,0.05,0.92,0.85,0.02,0.01
"21","101","alexandra","24m2h",2024,6,15,14,54,0,2541,101,23,"female",14,"tpr","prpt",1,0,6101,6101,6101,"bus","",1,"","","","","","",0,6101,NA,NA,"prpt",1,"1","","",NA,NA,NA,NA,NA,NA,NA,NA,NA,NA,NA,NA,NA,NA,NA,NA,NA,1,2,23.13,6,99,1,1,1,1,1,1,0.875,0.875,0.875,0.13,1735,1735,1735,2021,2021,2021,-286,3.57142857,3.57142857,4,4,4.75,4.75,6.375,6.375,4.15,4.15,264,2482.33,1786.75,-695.58,1.11587,1.05683,0.01599,0.00337,-1.50783,-2.9881,0.07326,1.54546,-1.80649,27.11292,0.00134,1.11587,1.05683,0.01599,0.00337,-1.50783,-2.9881,0.07326,1.54546,-1.80649,-0.94148,1.10006,0.02891,1.2757,-1.2757,-1.02526,-0.83808,0.91832,0.08168,0.89009,0.86578,0.72336,0.15164,1.45607,0.551,1632.04019,102.95981,-1.40889,0.20666,1830.42869,190.57131,-1.23139,0.23446,4.70926,-1.13783,-0.65597,-1.40895,5.63233,-1.63233,0.05765,-3.02942,4.64524,0.10476,-0.32432,0.1566,4.77165,1.60335,0.56654,1.44103,4.97344,-0.82344,-0.32302,-1.77374,1.11587,1.05683,0.01599,0.00337,-1.50783,-2.9881,0.07326,1.54546,-1.80649,-0.94148,1.10006,0.02891,1.2757,-1.2757,-1.02526,-0.83808,1.34032,NA,NA,1.11587,1.05683,0.01599,0.00337,-1.50783,-2.9881,0.07326,1.54546,-1.80649,-0.94148,1.10006,0.02891,-1.2757,-0.83808,1.34032,1.11587,1.05683,0.01599,0.00337,-1.50783,-2.9881,0.07326,1.54546,-1.80649,-0.94148,1.10006,0.02891,-1.2757,-0.83808,1.34032,-0.67314,0.00694,0.00036,0.01148,0.01148,0.02112,0.0011,0.00036,0.01148,0.02112,0.0011,0.00253,0.01749,0.00159,0.00032,0.01718,0.00696,0.00101,0.00131,0.01718,0.01718,0.01718,0.00696,0.00101,0.00131,0.02,0.05,0.92,0.85,0.02,0.01
"22","101","alexandra","24m2h",2024,6,15,14,53,37,2541,101,23,"female",10,"tpr","inhb",1,0,1245,1245,1245,"elephant2","",1,"","","","","","",1,1245,1245,NA,"inhb",1,"","1","",NA,NA,NA,NA,NA,NA,NA,NA,NA,NA,NA,NA,NA,NA,NA,NA,NA,1,2,23.13,6,99,1,1,1,1,1,1,0.875,0.875,0.875,0.13,1735,1735,1735,2021,2021,2021,-286,3.57142857,3.57142857,4,4,4.75,4.75,6.375,6.375,4.15,4.15,264,2482.33,1786.75,-695.58,1.11587,1.05683,0.01599,0.00337,-1.50783,-2.9881,0.07326,1.54546,-1.80649,27.11292,0.00134,1.11587,1.05683,0.01599,0.00337,-1.50783,-2.9881,0.07326,1.54546,-1.80649,-0.94148,1.10006,0.02891,1.2757,-1.2757,-1.02526,-0.83808,0.91832,0.08168,0.89009,0.86578,0.72336,0.15164,1.45607,0.551,1632.04019,102.95981,-1.40889,0.20666,1830.42869,190.57131,-1.23139,0.23446,4.70926,-1.13783,-0.65597,-1.40895,5.63233,-1.63233,0.05765,-3.02942,4.64524,0.10476,-0.32432,0.1566,4.77165,1.60335,0.56654,1.44103,4.97344,-0.82344,-0.32302,-1.77374,1.11587,1.05683,0.01599,0.00337,-1.50783,-2.9881,0.07326,1.54546,-1.80649,-0.94148,1.10006,0.02891,1.2757,-1.2757,-1.02526,-0.83808,1.34032,NA,NA,1.11587,1.05683,0.01599,0.00337,-1.50783,-2.9881,0.07326,1.54546,-1.80649,-0.94148,1.10006,0.02891,-1.2757,-0.83808,1.34032,1.11587,1.05683,0.01599,0.00337,-1.50783,-2.9881,0.07326,1.54546,-1.80649,-0.94148,1.10006,0.02891,-1.2757,-0.83808,1.34032,-0.67314,0.00694,0.00036,0.01148,0.01148,0.02112,0.0011,0.00036,0.01148,0.02112,0.0011,0.00253,0.01749,0.00159,0.00032,0.01718,0.00696,0.00101,0.00131,0.01718,0.01718,0.01718,0.00696,0.00101,0.00131,0.02,0.05,0.92,0.85,0.02,0.01
"23","101","alexandra","24m2h",2024,6,15,14,52,58,2541,101,23,"female",4,"tpr","prpt",1,0,1373,1373,1373,"elephant","",1,"","","","","","",1,1373,NA,173,"prpt",1,"1","","",NA,NA,NA,NA,NA,NA,NA,NA,NA,NA,NA,NA,NA,NA,NA,NA,NA,1,2,23.13,6,99,1,1,1,1,1,1,0.875,0.875,0.875,0.13,1735,1735,1735,2021,2021,2021,-286,3.57142857,3.57142857,4,4,4.75,4.75,6.375,6.375,4.15,4.15,264,2482.33,1786.75,-695.58,1.11587,1.05683,0.01599,0.00337,-1.50783,-2.9881,0.07326,1.54546,-1.80649,27.11292,0.00134,1.11587,1.05683,0.01599,0.00337,-1.50783,-2.9881,0.07326,1.54546,-1.80649,-0.94148,1.10006,0.02891,1.2757,-1.2757,-1.02526,-0.83808,0.91832,0.08168,0.89009,0.86578,0.72336,0.15164,1.45607,0.551,1632.04019,102.95981,-1.40889,0.20666,1830.42869,190.57131,-1.23139,0.23446,4.70926,-1.13783,-0.65597,-1.40895,5.63233,-1.63233,0.05765,-3.02942,4.64524,0.10476,-0.32432,0.1566,4.77165,1.60335,0.56654,1.44103,4.97344,-0.82344,-0.32302,-1.77374,1.11587,1.05683,0.01599,0.00337,-1.50783,-2.9881,0.07326,1.54546,-1.80649,-0.94148,1.10006,0.02891,1.2757,-1.2757,-1.02526,-0.83808,1.34032,NA,NA,1.11587,1.05683,0.01599,0.00337,-1.50783,-2.9881,0.07326,1.54546,-1.80649,-0.94148,1.10006,0.02891,-1.2757,-0.83808,1.34032,1.11587,1.05683,0.01599,0.00337,-1.50783,-2.9881,0.07326,1.54546,-1.80649,-0.94148,1.10006,0.02891,-1.2757,-0.83808,1.34032,-0.67314,0.00694,0.00036,0.01148,0.01148,0.02112,0.0011,0.00036,0.01148,0.02112,0.0011,0.00253,0.01749,0.00159,0.00032,0.01718,0.00696,0.00101,0.00131,0.01718,0.01718,0.01718,0.00696,0.00101,0.00131,0.02,0.05,0.92,0.85,0.02,0.01
"24","101","alexandra","24m2h",2024,6,15,14,52,40,2541,101,23,"female",1,"tpr","prpt",1,0,1581,1582,1582,"bus","",1,"","","","","","",1,1582,NA,1582,"prpt",1,"1","","",NA,NA,NA,NA,NA,NA,NA,NA,NA,NA,NA,NA,NA,NA,NA,NA,NA,1,2,23.13,6,99,1,1,1,1,1,1,0.875,0.875,0.875,0.13,1735,1735,1735,2021,2021,2021,-286,3.57142857,3.57142857,4,4,4.75,4.75,6.375,6.375,4.15,4.15,264,2482.33,1786.75,-695.58,1.11587,1.05683,0.01599,0.00337,-1.50783,-2.9881,0.07326,1.54546,-1.80649,27.11292,0.00134,1.11587,1.05683,0.01599,0.00337,-1.50783,-2.9881,0.07326,1.54546,-1.80649,-0.94148,1.10006,0.02891,1.2757,-1.2757,-1.02526,-0.83808,0.91832,0.08168,0.89009,0.86578,0.72336,0.15164,1.45607,0.551,1632.04019,102.95981,-1.40889,0.20666,1830.42869,190.57131,-1.23139,0.23446,4.70926,-1.13783,-0.65597,-1.40895,5.63233,-1.63233,0.05765,-3.02942,4.64524,0.10476,-0.32432,0.1566,4.77165,1.60335,0.56654,1.44103,4.97344,-0.82344,-0.32302,-1.77374,1.11587,1.05683,0.01599,0.00337,-1.50783,-2.9881,0.07326,1.54546,-1.80649,-0.94148,1.10006,0.02891,1.2757,-1.2757,-1.02526,-0.83808,1.34032,NA,NA,1.11587,1.05683,0.01599,0.00337,-1.50783,-2.9881,0.07326,1.54546,-1.80649,-0.94148,1.10006,0.02891,-1.2757,-0.83808,1.34032,1.11587,1.05683,0.01599,0.00337,-1.50783,-2.9881,0.07326,1.54546,-1.80649,-0.94148,1.10006,0.02891,-1.2757,-0.83808,1.34032,-0.67314,0.00694,0.00036,0.01148,0.01148,0.02112,0.0011,0.00036,0.01148,0.02112,0.0011,0.00253,0.01749,0.00159,0.00032,0.01718,0.00696,0.00101,0.00131,0.01718,0.01718,0.01718,0.00696,0.00101,0.00131,0.02,0.05,0.92,0.85,0.02,0.01
"25","101","alexandra","24m2h",2024,6,15,14,54,21,2541,101,23,"female",17,"tpr","inhb",1,0,2020,2021,2021,"flower","",1,"","","","","","",1,2021,2021,NA,"inhb",1,"","1","",NA,NA,NA,NA,NA,NA,NA,NA,NA,NA,NA,NA,NA,NA,NA,NA,NA,1,2,23.13,6,99,1,1,1,1,1,1,0.875,0.875,0.875,0.13,1735,1735,1735,2021,2021,2021,-286,3.57142857,3.57142857,4,4,4.75,4.75,6.375,6.375,4.15,4.15,264,2482.33,1786.75,-695.58,1.11587,1.05683,0.01599,0.00337,-1.50783,-2.9881,0.07326,1.54546,-1.80649,27.11292,0.00134,1.11587,1.05683,0.01599,0.00337,-1.50783,-2.9881,0.07326,1.54546,-1.80649,-0.94148,1.10006,0.02891,1.2757,-1.2757,-1.02526,-0.83808,0.91832,0.08168,0.89009,0.86578,0.72336,0.15164,1.45607,0.551,1632.04019,102.95981,-1.40889,0.20666,1830.42869,190.57131,-1.23139,0.23446,4.70926,-1.13783,-0.65597,-1.40895,5.63233,-1.63233,0.05765,-3.02942,4.64524,0.10476,-0.32432,0.1566,4.77165,1.60335,0.56654,1.44103,4.97344,-0.82344,-0.32302,-1.77374,1.11587,1.05683,0.01599,0.00337,-1.50783,-2.9881,0.07326,1.54546,-1.80649,-0.94148,1.10006,0.02891,1.2757,-1.2757,-1.02526,-0.83808,1.34032,NA,NA,1.11587,1.05683,0.01599,0.00337,-1.50783,-2.9881,0.07326,1.54546,-1.80649,-0.94148,1.10006,0.02891,-1.2757,-0.83808,1.34032,1.11587,1.05683,0.01599,0.00337,-1.50783,-2.9881,0.07326,1.54546,-1.80649,-0.94148,1.10006,0.02891,-1.2757,-0.83808,1.34032,-0.67314,0.00694,0.00036,0.01148,0.01148,0.02112,0.0011,0.00036,0.01148,0.02112,0.0011,0.00253,0.01749,0.00159,0.00032,0.01718,0.00696,0.00101,0.00131,0.01718,0.01718,0.01718,0.00696,0.00101,0.00131,0.02,0.05,0.92,0.85,0.02,0.01
"26","101","alexandra","24m2h",2024,6,15,14,54,34,2541,101,23,"female",19,"tpr","prpt",1,0,2190,2190,2190,"bus","",1,"","","","","","",1,2190,NA,2190,"prpt",1,"1","","",NA,NA,NA,NA,NA,NA,NA,NA,NA,NA,NA,NA,NA,NA,NA,NA,NA,1,2,23.13,6,99,1,1,1,1,1,1,0.875,0.875,0.875,0.13,1735,1735,1735,2021,2021,2021,-286,3.57142857,3.57142857,4,4,4.75,4.75,6.375,6.375,4.15,4.15,264,2482.33,1786.75,-695.58,1.11587,1.05683,0.01599,0.00337,-1.50783,-2.9881,0.07326,1.54546,-1.80649,27.11292,0.00134,1.11587,1.05683,0.01599,0.00337,-1.50783,-2.9881,0.07326,1.54546,-1.80649,-0.94148,1.10006,0.02891,1.2757,-1.2757,-1.02526,-0.83808,0.91832,0.08168,0.89009,0.86578,0.72336,0.15164,1.45607,0.551,1632.04019,102.95981,-1.40889,0.20666,1830.42869,190.57131,-1.23139,0.23446,4.70926,-1.13783,-0.65597,-1.40895,5.63233,-1.63233,0.05765,-3.02942,4.64524,0.10476,-0.32432,0.1566,4.77165,1.60335,0.56654,1.44103,4.97344,-0.82344,-0.32302,-1.77374,1.11587,1.05683,0.01599,0.00337,-1.50783,-2.9881,0.07326,1.54546,-1.80649,-0.94148,1.10006,0.02891,1.2757,-1.2757,-1.02526,-0.83808,1.34032,NA,NA,1.11587,1.05683,0.01599,0.00337,-1.50783,-2.9881,0.07326,1.54546,-1.80649,-0.94148,1.10006,0.02891,-1.2757,-0.83808,1.34032,1.11587,1.05683,0.01599,0.00337,-1.50783,-2.9881,0.07326,1.54546,-1.80649,-0.94148,1.10006,0.02891,-1.2757,-0.83808,1.34032,-0.67314,0.00694,0.00036,0.01148,0.01148,0.02112,0.0011,0.00036,0.01148,0.02112,0.0011,0.00253,0.01749,0.00159,0.00032,0.01718,0.00696,0.00101,0.00131,0.01718,0.01718,0.01718,0.00696,0.00101,0.00131,0.02,0.05,0.92,0.85,0.02,0.01
"27","101","alexandra","24m2h",2024,6,15,14,50,13,2541,101,23,"female",1,"prr","",1,0,11970,74971,74971,"flower","",1,"","","","","","",0,74971,NA,NA,"",1,"","","",NA,NA,NA,NA,NA,NA,NA,NA,NA,NA,NA,NA,NA,NA,NA,NA,NA,1,2,23.13,6,99,1,1,1,1,1,1,0.875,0.875,0.875,0.13,1735,1735,1735,2021,2021,2021,-286,3.57142857,3.57142857,4,4,4.75,4.75,6.375,6.375,4.15,4.15,264,2482.33,1786.75,-695.58,1.11587,1.05683,0.01599,0.00337,-1.50783,-2.9881,0.07326,1.54546,-1.80649,27.11292,0.00134,1.11587,1.05683,0.01599,0.00337,-1.50783,-2.9881,0.07326,1.54546,-1.80649,-0.94148,1.10006,0.02891,1.2757,-1.2757,-1.02526,-0.83808,0.91832,0.08168,0.89009,0.86578,0.72336,0.15164,1.45607,0.551,1632.04019,102.95981,-1.40889,0.20666,1830.42869,190.57131,-1.23139,0.23446,4.70926,-1.13783,-0.65597,-1.40895,5.63233,-1.63233,0.05765,-3.02942,4.64524,0.10476,-0.32432,0.1566,4.77165,1.60335,0.56654,1.44103,4.97344,-0.82344,-0.32302,-1.77374,1.11587,1.05683,0.01599,0.00337,-1.50783,-2.9881,0.07326,1.54546,-1.80649,-0.94148,1.10006,0.02891,1.2757,-1.2757,-1.02526,-0.83808,1.34032,NA,NA,1.11587,1.05683,0.01599,0.00337,-1.50783,-2.9881,0.07326,1.54546,-1.80649,-0.94148,1.10006,0.02891,-1.2757,-0.83808,1.34032,1.11587,1.05683,0.01599,0.00337,-1.50783,-2.9881,0.07326,1.54546,-1.80649,-0.94148,1.10006,0.02891,-1.2757,-0.83808,1.34032,-0.67314,0.00694,0.00036,0.01148,0.01148,0.02112,0.0011,0.00036,0.01148,0.02112,0.0011,0.00253,0.01749,0.00159,0.00032,0.01718,0.00696,0.00101,0.00131,0.01718,0.01718,0.01718,0.00696,0.00101,0.00131,0.02,0.05,0.92,0.85,0.02,0.01
"28","101","alexandra","24m2h",2024,6,15,14,55,56,2541,101,23,"female",32,"tpr","prpt",1,0,1920,1921,1921,"bus","",1,"","","","","","",1,1921,NA,1921,"prpt",1,"1","","",NA,NA,NA,NA,NA,NA,NA,NA,NA,NA,NA,NA,NA,NA,NA,NA,NA,1,2,23.13,6,99,1,1,1,1,1,1,0.875,0.875,0.875,0.13,1735,1735,1735,2021,2021,2021,-286,3.57142857,3.57142857,4,4,4.75,4.75,6.375,6.375,4.15,4.15,264,2482.33,1786.75,-695.58,1.11587,1.05683,0.01599,0.00337,-1.50783,-2.9881,0.07326,1.54546,-1.80649,27.11292,0.00134,1.11587,1.05683,0.01599,0.00337,-1.50783,-2.9881,0.07326,1.54546,-1.80649,-0.94148,1.10006,0.02891,1.2757,-1.2757,-1.02526,-0.83808,0.91832,0.08168,0.89009,0.86578,0.72336,0.15164,1.45607,0.551,1632.04019,102.95981,-1.40889,0.20666,1830.42869,190.57131,-1.23139,0.23446,4.70926,-1.13783,-0.65597,-1.40895,5.63233,-1.63233,0.05765,-3.02942,4.64524,0.10476,-0.32432,0.1566,4.77165,1.60335,0.56654,1.44103,4.97344,-0.82344,-0.32302,-1.77374,1.11587,1.05683,0.01599,0.00337,-1.50783,-2.9881,0.07326,1.54546,-1.80649,-0.94148,1.10006,0.02891,1.2757,-1.2757,-1.02526,-0.83808,1.34032,NA,NA,1.11587,1.05683,0.01599,0.00337,-1.50783,-2.9881,0.07326,1.54546,-1.80649,-0.94148,1.10006,0.02891,-1.2757,-0.83808,1.34032,1.11587,1.05683,0.01599,0.00337,-1.50783,-2.9881,0.07326,1.54546,-1.80649,-0.94148,1.10006,0.02891,-1.2757,-0.83808,1.34032,-0.67314,0.00694,0.00036,0.01148,0.01148,0.02112,0.0011,0.00036,0.01148,0.02112,0.0011,0.00253,0.01749,0.00159,0.00032,0.01718,0.00696,0.00101,0.00131,0.01718,0.01718,0.01718,0.00696,0.00101,0.00131,0.02,0.05,0.92,0.85,0.02,0.01
"29","101","alexandra","24m2h",2024,6,15,14,55,11,2541,101,23,"female",25,"tpr","prpt",1,0,4241,4242,4242,"flower","",1,"","","","","","",1,4242,NA,4242,"prpt",1,"1","","",NA,NA,NA,NA,NA,NA,NA,NA,NA,NA,NA,NA,NA,NA,NA,NA,NA,1,2,23.13,6,99,1,1,1,1,1,1,0.875,0.875,0.875,0.13,1735,1735,1735,2021,2021,2021,-286,3.57142857,3.57142857,4,4,4.75,4.75,6.375,6.375,4.15,4.15,264,2482.33,1786.75,-695.58,1.11587,1.05683,0.01599,0.00337,-1.50783,-2.9881,0.07326,1.54546,-1.80649,27.11292,0.00134,1.11587,1.05683,0.01599,0.00337,-1.50783,-2.9881,0.07326,1.54546,-1.80649,-0.94148,1.10006,0.02891,1.2757,-1.2757,-1.02526,-0.83808,0.91832,0.08168,0.89009,0.86578,0.72336,0.15164,1.45607,0.551,1632.04019,102.95981,-1.40889,0.20666,1830.42869,190.57131,-1.23139,0.23446,4.70926,-1.13783,-0.65597,-1.40895,5.63233,-1.63233,0.05765,-3.02942,4.64524,0.10476,-0.32432,0.1566,4.77165,1.60335,0.56654,1.44103,4.97344,-0.82344,-0.32302,-1.77374,1.11587,1.05683,0.01599,0.00337,-1.50783,-2.9881,0.07326,1.54546,-1.80649,-0.94148,1.10006,0.02891,1.2757,-1.2757,-1.02526,-0.83808,1.34032,NA,NA,1.11587,1.05683,0.01599,0.00337,-1.50783,-2.9881,0.07326,1.54546,-1.80649,-0.94148,1.10006,0.02891,-1.2757,-0.83808,1.34032,1.11587,1.05683,0.01599,0.00337,-1.50783,-2.9881,0.07326,1.54546,-1.80649,-0.94148,1.10006,0.02891,-1.2757,-0.83808,1.34032,-0.67314,0.00694,0.00036,0.01148,0.01148,0.02112,0.0011,0.00036,0.01148,0.02112,0.0011,0.00253,0.01749,0.00159,0.00032,0.01718,0.00696,0.00101,0.00131,0.01718,0.01718,0.01718,0.00696,0.00101,0.00131,0.02,0.05,0.92,0.85,0.02,0.01
"30","101","alexandra","24m2h",2024,6,15,14,55,19,2541,101,23,"female",26,"tpr","prpt",1,0,1598,1598,1598,"bus","",1,"","","","","","",1,1598,NA,1598,"prpt",1,"1","","",NA,NA,NA,NA,NA,NA,NA,NA,NA,NA,NA,NA,NA,NA,NA,NA,NA,1,2,23.13,6,99,1,1,1,1,1,1,0.875,0.875,0.875,0.13,1735,1735,1735,2021,2021,2021,-286,3.57142857,3.57142857,4,4,4.75,4.75,6.375,6.375,4.15,4.15,264,2482.33,1786.75,-695.58,1.11587,1.05683,0.01599,0.00337,-1.50783,-2.9881,0.07326,1.54546,-1.80649,27.11292,0.00134,1.11587,1.05683,0.01599,0.00337,-1.50783,-2.9881,0.07326,1.54546,-1.80649,-0.94148,1.10006,0.02891,1.2757,-1.2757,-1.02526,-0.83808,0.91832,0.08168,0.89009,0.86578,0.72336,0.15164,1.45607,0.551,1632.04019,102.95981,-1.40889,0.20666,1830.42869,190.57131,-1.23139,0.23446,4.70926,-1.13783,-0.65597,-1.40895,5.63233,-1.63233,0.05765,-3.02942,4.64524,0.10476,-0.32432,0.1566,4.77165,1.60335,0.56654,1.44103,4.97344,-0.82344,-0.32302,-1.77374,1.11587,1.05683,0.01599,0.00337,-1.50783,-2.9881,0.07326,1.54546,-1.80649,-0.94148,1.10006,0.02891,1.2757,-1.2757,-1.02526,-0.83808,1.34032,NA,NA,1.11587,1.05683,0.01599,0.00337,-1.50783,-2.9881,0.07326,1.54546,-1.80649,-0.94148,1.10006,0.02891,-1.2757,-0.83808,1.34032,1.11587,1.05683,0.01599,0.00337,-1.50783,-2.9881,0.07326,1.54546,-1.80649,-0.94148,1.10006,0.02891,-1.2757,-0.83808,1.34032,-0.67314,0.00694,0.00036,0.01148,0.01148,0.02112,0.0011,0.00036,0.01148,0.02112,0.0011,0.00253,0.01749,0.00159,0.00032,0.01718,0.00696,0.00101,0.00131,0.01718,0.01718,0.01718,0.00696,0.00101,0.00131,0.02,0.05,0.92,0.85,0.02,0.01
"31","101","alexandra","24m2h",2024,6,15,14,53,42,2541,101,23,"female",11,"tpr","prpt",1,0,1795,1795,1795,"bus","",1,"","","","","","",1,1795,NA,1795,"prpt",1,"1","","",NA,NA,NA,NA,NA,NA,NA,NA,NA,NA,NA,NA,NA,NA,NA,NA,NA,1,2,23.13,6,99,1,1,1,1,1,1,0.875,0.875,0.875,0.13,1735,1735,1735,2021,2021,2021,-286,3.57142857,3.57142857,4,4,4.75,4.75,6.375,6.375,4.15,4.15,264,2482.33,1786.75,-695.58,1.11587,1.05683,0.01599,0.00337,-1.50783,-2.9881,0.07326,1.54546,-1.80649,27.11292,0.00134,1.11587,1.05683,0.01599,0.00337,-1.50783,-2.9881,0.07326,1.54546,-1.80649,-0.94148,1.10006,0.02891,1.2757,-1.2757,-1.02526,-0.83808,0.91832,0.08168,0.89009,0.86578,0.72336,0.15164,1.45607,0.551,1632.04019,102.95981,-1.40889,0.20666,1830.42869,190.57131,-1.23139,0.23446,4.70926,-1.13783,-0.65597,-1.40895,5.63233,-1.63233,0.05765,-3.02942,4.64524,0.10476,-0.32432,0.1566,4.77165,1.60335,0.56654,1.44103,4.97344,-0.82344,-0.32302,-1.77374,1.11587,1.05683,0.01599,0.00337,-1.50783,-2.9881,0.07326,1.54546,-1.80649,-0.94148,1.10006,0.02891,1.2757,-1.2757,-1.02526,-0.83808,1.34032,NA,NA,1.11587,1.05683,0.01599,0.00337,-1.50783,-2.9881,0.07326,1.54546,-1.80649,-0.94148,1.10006,0.02891,-1.2757,-0.83808,1.34032,1.11587,1.05683,0.01599,0.00337,-1.50783,-2.9881,0.07326,1.54546,-1.80649,-0.94148,1.10006,0.02891,-1.2757,-0.83808,1.34032,-0.67314,0.00694,0.00036,0.01148,0.01148,0.02112,0.0011,0.00036,0.01148,0.02112,0.0011,0.00253,0.01749,0.00159,0.00032,0.01718,0.00696,0.00101,0.00131,0.01718,0.01718,0.01718,0.00696,0.00101,0.00131,0.02,0.05,0.92,0.85,0.02,0.01
"32","101","alexandra","24m2h",2024,6,15,14,53,30,2541,101,23,"female",9,"tpr","inhb",1,0,2959,2959,2959,"elephant4","",1,"","","","","","",1,2959,2959,NA,"inhb",1,"","1","",NA,NA,NA,NA,NA,NA,NA,NA,NA,NA,NA,NA,NA,NA,NA,NA,NA,1,2,23.13,6,99,1,1,1,1,1,1,0.875,0.875,0.875,0.13,1735,1735,1735,2021,2021,2021,-286,3.57142857,3.57142857,4,4,4.75,4.75,6.375,6.375,4.15,4.15,264,2482.33,1786.75,-695.58,1.11587,1.05683,0.01599,0.00337,-1.50783,-2.9881,0.07326,1.54546,-1.80649,27.11292,0.00134,1.11587,1.05683,0.01599,0.00337,-1.50783,-2.9881,0.07326,1.54546,-1.80649,-0.94148,1.10006,0.02891,1.2757,-1.2757,-1.02526,-0.83808,0.91832,0.08168,0.89009,0.86578,0.72336,0.15164,1.45607,0.551,1632.04019,102.95981,-1.40889,0.20666,1830.42869,190.57131,-1.23139,0.23446,4.70926,-1.13783,-0.65597,-1.40895,5.63233,-1.63233,0.05765,-3.02942,4.64524,0.10476,-0.32432,0.1566,4.77165,1.60335,0.56654,1.44103,4.97344,-0.82344,-0.32302,-1.77374,1.11587,1.05683,0.01599,0.00337,-1.50783,-2.9881,0.07326,1.54546,-1.80649,-0.94148,1.10006,0.02891,1.2757,-1.2757,-1.02526,-0.83808,1.34032,NA,NA,1.11587,1.05683,0.01599,0.00337,-1.50783,-2.9881,0.07326,1.54546,-1.80649,-0.94148,1.10006,0.02891,-1.2757,-0.83808,1.34032,1.11587,1.05683,0.01599,0.00337,-1.50783,-2.9881,0.07326,1.54546,-1.80649,-0.94148,1.10006,0.02891,-1.2757,-0.83808,1.34032,-0.67314,0.00694,0.00036,0.01148,0.01148,0.02112,0.0011,0.00036,0.01148,0.02112,0.0011,0.00253,0.01749,0.00159,0.00032,0.01718,0.00696,0.00101,0.00131,0.01718,0.01718,0.01718,0.00696,0.00101,0.00131,0.02,0.05,0.92,0.85,0.02,0.01
"33","101","alexandra","24m2h",2024,6,15,14,49,42,2541,101,23,"female",1,"prr","",1,0,4181,22572,22572,"elephant","",1,"","","","","","",0,22572,NA,NA,"",1,"","","",NA,NA,NA,NA,NA,NA,NA,NA,NA,NA,NA,NA,NA,NA,NA,NA,NA,1,2,23.13,6,99,1,1,1,1,1,1,0.875,0.875,0.875,0.13,1735,1735,1735,2021,2021,2021,-286,3.57142857,3.57142857,4,4,4.75,4.75,6.375,6.375,4.15,4.15,264,2482.33,1786.75,-695.58,1.11587,1.05683,0.01599,0.00337,-1.50783,-2.9881,0.07326,1.54546,-1.80649,27.11292,0.00134,1.11587,1.05683,0.01599,0.00337,-1.50783,-2.9881,0.07326,1.54546,-1.80649,-0.94148,1.10006,0.02891,1.2757,-1.2757,-1.02526,-0.83808,0.91832,0.08168,0.89009,0.86578,0.72336,0.15164,1.45607,0.551,1632.04019,102.95981,-1.40889,0.20666,1830.42869,190.57131,-1.23139,0.23446,4.70926,-1.13783,-0.65597,-1.40895,5.63233,-1.63233,0.05765,-3.02942,4.64524,0.10476,-0.32432,0.1566,4.77165,1.60335,0.56654,1.44103,4.97344,-0.82344,-0.32302,-1.77374,1.11587,1.05683,0.01599,0.00337,-1.50783,-2.9881,0.07326,1.54546,-1.80649,-0.94148,1.10006,0.02891,1.2757,-1.2757,-1.02526,-0.83808,1.34032,NA,NA,1.11587,1.05683,0.01599,0.00337,-1.50783,-2.9881,0.07326,1.54546,-1.80649,-0.94148,1.10006,0.02891,-1.2757,-0.83808,1.34032,1.11587,1.05683,0.01599,0.00337,-1.50783,-2.9881,0.07326,1.54546,-1.80649,-0.94148,1.10006,0.02891,-1.2757,-0.83808,1.34032,-0.67314,0.00694,0.00036,0.01148,0.01148,0.02112,0.0011,0.00036,0.01148,0.02112,0.0011,0.00253,0.01749,0.00159,0.00032,0.01718,0.00696,0.00101,0.00131,0.01718,0.01718,0.01718,0.00696,0.00101,0.00131,0.02,0.05,0.92,0.85,0.02,0.01
"34","101","alexandra","24m2h",2024,6,15,14,53,48,2541,101,23,"female",12,"tpr","prpt",1,0,1363,1363,1363,"flower","",1,"","","","","","",1,1363,NA,1363,"prpt",1,"1","","",NA,NA,NA,NA,NA,NA,NA,NA,NA,NA,NA,NA,NA,NA,NA,NA,NA,1,2,23.13,6,99,1,1,1,1,1,1,0.875,0.875,0.875,0.13,1735,1735,1735,2021,2021,2021,-286,3.57142857,3.57142857,4,4,4.75,4.75,6.375,6.375,4.15,4.15,264,2482.33,1786.75,-695.58,1.11587,1.05683,0.01599,0.00337,-1.50783,-2.9881,0.07326,1.54546,-1.80649,27.11292,0.00134,1.11587,1.05683,0.01599,0.00337,-1.50783,-2.9881,0.07326,1.54546,-1.80649,-0.94148,1.10006,0.02891,1.2757,-1.2757,-1.02526,-0.83808,0.91832,0.08168,0.89009,0.86578,0.72336,0.15164,1.45607,0.551,1632.04019,102.95981,-1.40889,0.20666,1830.42869,190.57131,-1.23139,0.23446,4.70926,-1.13783,-0.65597,-1.40895,5.63233,-1.63233,0.05765,-3.02942,4.64524,0.10476,-0.32432,0.1566,4.77165,1.60335,0.56654,1.44103,4.97344,-0.82344,-0.32302,-1.77374,1.11587,1.05683,0.01599,0.00337,-1.50783,-2.9881,0.07326,1.54546,-1.80649,-0.94148,1.10006,0.02891,1.2757,-1.2757,-1.02526,-0.83808,1.34032,NA,NA,1.11587,1.05683,0.01599,0.00337,-1.50783,-2.9881,0.07326,1.54546,-1.80649,-0.94148,1.10006,0.02891,-1.2757,-0.83808,1.34032,1.11587,1.05683,0.01599,0.00337,-1.50783,-2.9881,0.07326,1.54546,-1.80649,-0.94148,1.10006,0.02891,-1.2757,-0.83808,1.34032,-0.67314,0.00694,0.00036,0.01148,0.01148,0.02112,0.0011,0.00036,0.01148,0.02112,0.0011,0.00253,0.01749,0.00159,0.00032,0.01718,0.00696,0.00101,0.00131,0.01718,0.01718,0.01718,0.00696,0.00101,0.00131,0.02,0.05,0.92,0.85,0.02,0.01
"35","101","alexandra","24m2h",2024,6,15,14,55,50,2541,101,23,"female",31,"tpr","prpt",1,0,1735,1735,1735,"elephant","",1,"","","","","","",1,1735,NA,1735,"prpt",1,"1","","",NA,NA,NA,NA,NA,NA,NA,NA,NA,NA,NA,NA,NA,NA,NA,NA,NA,1,2,23.13,6,99,1,1,1,1,1,1,0.875,0.875,0.875,0.13,1735,1735,1735,2021,2021,2021,-286,3.57142857,3.57142857,4,4,4.75,4.75,6.375,6.375,4.15,4.15,264,2482.33,1786.75,-695.58,1.11587,1.05683,0.01599,0.00337,-1.50783,-2.9881,0.07326,1.54546,-1.80649,27.11292,0.00134,1.11587,1.05683,0.01599,0.00337,-1.50783,-2.9881,0.07326,1.54546,-1.80649,-0.94148,1.10006,0.02891,1.2757,-1.2757,-1.02526,-0.83808,0.91832,0.08168,0.89009,0.86578,0.72336,0.15164,1.45607,0.551,1632.04019,102.95981,-1.40889,0.20666,1830.42869,190.57131,-1.23139,0.23446,4.70926,-1.13783,-0.65597,-1.40895,5.63233,-1.63233,0.05765,-3.02942,4.64524,0.10476,-0.32432,0.1566,4.77165,1.60335,0.56654,1.44103,4.97344,-0.82344,-0.32302,-1.77374,1.11587,1.05683,0.01599,0.00337,-1.50783,-2.9881,0.07326,1.54546,-1.80649,-0.94148,1.10006,0.02891,1.2757,-1.2757,-1.02526,-0.83808,1.34032,NA,NA,1.11587,1.05683,0.01599,0.00337,-1.50783,-2.9881,0.07326,1.54546,-1.80649,-0.94148,1.10006,0.02891,-1.2757,-0.83808,1.34032,1.11587,1.05683,0.01599,0.00337,-1.50783,-2.9881,0.07326,1.54546,-1.80649,-0.94148,1.10006,0.02891,-1.2757,-0.83808,1.34032,-0.67314,0.00694,0.00036,0.01148,0.01148,0.02112,0.0011,0.00036,0.01148,0.02112,0.0011,0.00253,0.01749,0.00159,0.00032,0.01718,0.00696,0.00101,0.00131,0.01718,0.01718,0.01718,0.00696,0.00101,0.00131,0.02,0.05,0.92,0.85,0.02,0.01
"36","101","alexandra","24m2h",2024,6,15,14,55,5,2541,101,23,"female",24,"tpr","prpt",1,0,1629,1629,1629,"elephant","",1,"","","","","","",1,1629,NA,1629,"prpt",1,"1","","",NA,NA,NA,NA,NA,NA,NA,NA,NA,NA,NA,NA,NA,NA,NA,NA,NA,1,2,23.13,6,99,1,1,1,1,1,1,0.875,0.875,0.875,0.13,1735,1735,1735,2021,2021,2021,-286,3.57142857,3.57142857,4,4,4.75,4.75,6.375,6.375,4.15,4.15,264,2482.33,1786.75,-695.58,1.11587,1.05683,0.01599,0.00337,-1.50783,-2.9881,0.07326,1.54546,-1.80649,27.11292,0.00134,1.11587,1.05683,0.01599,0.00337,-1.50783,-2.9881,0.07326,1.54546,-1.80649,-0.94148,1.10006,0.02891,1.2757,-1.2757,-1.02526,-0.83808,0.91832,0.08168,0.89009,0.86578,0.72336,0.15164,1.45607,0.551,1632.04019,102.95981,-1.40889,0.20666,1830.42869,190.57131,-1.23139,0.23446,4.70926,-1.13783,-0.65597,-1.40895,5.63233,-1.63233,0.05765,-3.02942,4.64524,0.10476,-0.32432,0.1566,4.77165,1.60335,0.56654,1.44103,4.97344,-0.82344,-0.32302,-1.77374,1.11587,1.05683,0.01599,0.00337,-1.50783,-2.9881,0.07326,1.54546,-1.80649,-0.94148,1.10006,0.02891,1.2757,-1.2757,-1.02526,-0.83808,1.34032,NA,NA,1.11587,1.05683,0.01599,0.00337,-1.50783,-2.9881,0.07326,1.54546,-1.80649,-0.94148,1.10006,0.02891,-1.2757,-0.83808,1.34032,1.11587,1.05683,0.01599,0.00337,-1.50783,-2.9881,0.07326,1.54546,-1.80649,-0.94148,1.10006,0.02891,-1.2757,-0.83808,1.34032,-0.67314,0.00694,0.00036,0.01148,0.01148,0.02112,0.0011,0.00036,0.01148,0.02112,0.0011,0.00253,0.01749,0.00159,0.00032,0.01718,0.00696,0.00101,0.00131,0.01718,0.01718,0.01718,0.00696,0.00101,0.00131,0.02,0.05,0.92,0.85,0.02,0.01
"37","101","alexandra","24m2h",2024,6,15,14,52,52,2541,101,23,"female",3,"tpr","prpt",1,0,1791,1792,1792,"elephant4","",1,"","","","","","",1,1792,NA,1792,"prpt",1,"1","","",NA,NA,NA,NA,NA,NA,NA,NA,NA,NA,NA,NA,NA,NA,NA,NA,NA,1,2,23.13,6,99,1,1,1,1,1,1,0.875,0.875,0.875,0.13,1735,1735,1735,2021,2021,2021,-286,3.57142857,3.57142857,4,4,4.75,4.75,6.375,6.375,4.15,4.15,264,2482.33,1786.75,-695.58,1.11587,1.05683,0.01599,0.00337,-1.50783,-2.9881,0.07326,1.54546,-1.80649,27.11292,0.00134,1.11587,1.05683,0.01599,0.00337,-1.50783,-2.9881,0.07326,1.54546,-1.80649,-0.94148,1.10006,0.02891,1.2757,-1.2757,-1.02526,-0.83808,0.91832,0.08168,0.89009,0.86578,0.72336,0.15164,1.45607,0.551,1632.04019,102.95981,-1.40889,0.20666,1830.42869,190.57131,-1.23139,0.23446,4.70926,-1.13783,-0.65597,-1.40895,5.63233,-1.63233,0.05765,-3.02942,4.64524,0.10476,-0.32432,0.1566,4.77165,1.60335,0.56654,1.44103,4.97344,-0.82344,-0.32302,-1.77374,1.11587,1.05683,0.01599,0.00337,-1.50783,-2.9881,0.07326,1.54546,-1.80649,-0.94148,1.10006,0.02891,1.2757,-1.2757,-1.02526,-0.83808,1.34032,NA,NA,1.11587,1.05683,0.01599,0.00337,-1.50783,-2.9881,0.07326,1.54546,-1.80649,-0.94148,1.10006,0.02891,-1.2757,-0.83808,1.34032,1.11587,1.05683,0.01599,0.00337,-1.50783,-2.9881,0.07326,1.54546,-1.80649,-0.94148,1.10006,0.02891,-1.2757,-0.83808,1.34032,-0.67314,0.00694,0.00036,0.01148,0.01148,0.02112,0.0011,0.00036,0.01148,0.02112,0.0011,0.00253,0.01749,0.00159,0.00032,0.01718,0.00696,0.00101,0.00131,0.01718,0.01718,0.01718,0.00696,0.00101,0.00131,0.02,0.05,0.92,0.85,0.02,0.01
"38","101","alexandra","24m2h",2024,6,15,14,53,54,2541,101,23,"female",13,"tpr","prpt",1,0,1658,1659,1659,"elephant2","",1,"","","","","","",1,1659,NA,1659,"prpt",1,"1","","",NA,NA,NA,NA,NA,NA,NA,NA,NA,NA,NA,NA,NA,NA,NA,NA,NA,1,2,23.13,6,99,1,1,1,1,1,1,0.875,0.875,0.875,0.13,1735,1735,1735,2021,2021,2021,-286,3.57142857,3.57142857,4,4,4.75,4.75,6.375,6.375,4.15,4.15,264,2482.33,1786.75,-695.58,1.11587,1.05683,0.01599,0.00337,-1.50783,-2.9881,0.07326,1.54546,-1.80649,27.11292,0.00134,1.11587,1.05683,0.01599,0.00337,-1.50783,-2.9881,0.07326,1.54546,-1.80649,-0.94148,1.10006,0.02891,1.2757,-1.2757,-1.02526,-0.83808,0.91832,0.08168,0.89009,0.86578,0.72336,0.15164,1.45607,0.551,1632.04019,102.95981,-1.40889,0.20666,1830.42869,190.57131,-1.23139,0.23446,4.70926,-1.13783,-0.65597,-1.40895,5.63233,-1.63233,0.05765,-3.02942,4.64524,0.10476,-0.32432,0.1566,4.77165,1.60335,0.56654,1.44103,4.97344,-0.82344,-0.32302,-1.77374,1.11587,1.05683,0.01599,0.00337,-1.50783,-2.9881,0.07326,1.54546,-1.80649,-0.94148,1.10006,0.02891,1.2757,-1.2757,-1.02526,-0.83808,1.34032,NA,NA,1.11587,1.05683,0.01599,0.00337,-1.50783,-2.9881,0.07326,1.54546,-1.80649,-0.94148,1.10006,0.02891,-1.2757,-0.83808,1.34032,1.11587,1.05683,0.01599,0.00337,-1.50783,-2.9881,0.07326,1.54546,-1.80649,-0.94148,1.10006,0.02891,-1.2757,-0.83808,1.34032,-0.67314,0.00694,0.00036,0.01148,0.01148,0.02112,0.0011,0.00036,0.01148,0.02112,0.0011,0.00253,0.01749,0.00159,0.00032,0.01718,0.00696,0.00101,0.00131,0.01718,0.01718,0.01718,0.00696,0.00101,0.00131,0.02,0.05,0.92,0.85,0.02,0.01
"39","101","alexandra","24m2h",2024,6,15,14,49,28,2541,101,23,"female",1,"prr","",1,0,9134,9134,9134,"apple","",1,"","","","","","",0,9134,NA,NA,"",1,"","","",NA,NA,NA,NA,NA,NA,NA,NA,NA,NA,NA,NA,NA,NA,NA,NA,NA,1,2,23.13,6,99,1,1,1,1,1,1,0.875,0.875,0.875,0.13,1735,1735,1735,2021,2021,2021,-286,3.57142857,3.57142857,4,4,4.75,4.75,6.375,6.375,4.15,4.15,264,2482.33,1786.75,-695.58,1.11587,1.05683,0.01599,0.00337,-1.50783,-2.9881,0.07326,1.54546,-1.80649,27.11292,0.00134,1.11587,1.05683,0.01599,0.00337,-1.50783,-2.9881,0.07326,1.54546,-1.80649,-0.94148,1.10006,0.02891,1.2757,-1.2757,-1.02526,-0.83808,0.91832,0.08168,0.89009,0.86578,0.72336,0.15164,1.45607,0.551,1632.04019,102.95981,-1.40889,0.20666,1830.42869,190.57131,-1.23139,0.23446,4.70926,-1.13783,-0.65597,-1.40895,5.63233,-1.63233,0.05765,-3.02942,4.64524,0.10476,-0.32432,0.1566,4.77165,1.60335,0.56654,1.44103,4.97344,-0.82344,-0.32302,-1.77374,1.11587,1.05683,0.01599,0.00337,-1.50783,-2.9881,0.07326,1.54546,-1.80649,-0.94148,1.10006,0.02891,1.2757,-1.2757,-1.02526,-0.83808,1.34032,NA,NA,1.11587,1.05683,0.01599,0.00337,-1.50783,-2.9881,0.07326,1.54546,-1.80649,-0.94148,1.10006,0.02891,-1.2757,-0.83808,1.34032,1.11587,1.05683,0.01599,0.00337,-1.50783,-2.9881,0.07326,1.54546,-1.80649,-0.94148,1.10006,0.02891,-1.2757,-0.83808,1.34032,-0.67314,0.00694,0.00036,0.01148,0.01148,0.02112,0.0011,0.00036,0.01148,0.02112,0.0011,0.00253,0.01749,0.00159,0.00032,0.01718,0.00696,0.00101,0.00131,0.01718,0.01718,0.01718,0.00696,0.00101,0.00131,0.02,0.05,0.92,0.85,0.02,0.01
"40","102","alexandra","24m2h",2024,6,8,20,55,22,2533,102,21,"female",14,"tpl","prpt",1,0,863,863,863,"apple","",1,"","","","","","",1,863,NA,863,"prpt",1,"1","","","",NA,NA,NA,NA,NA,NA,NA,NA,NA,NA,NA,NA,NA,NA,NA,NA,1,2,20.33,6,47,53,2,2,0.9583,0.9583,0.9583,0.375,0.375,0.375,0.58,2274,2274.5,2274.5,3812,3812,3812,-1537.5,5.75,5.75,5.71428571,5.71428571,5.75,5.75,3.75,3.75,5.73913044,5.73913044,999,4196,3674,-522,0.72899,-0.60551,1.13291,2.24218,1.24543,0.19566,1.55523,-0.74539,1.57631,12.83846,0.17005,0.72899,-0.60551,1.13291,2.24218,1.24543,0.19566,1.55523,-0.74539,1.57631,-0.94148,0.04346,0.02891,-1.57543,1.57543,0.95911,1.17331,0.88435,0.07395,-0.06671,0.7838,0.45957,-0.08457,-0.61594,-0.3073,1800.15843,474.34157,0.70727,0.95208,2114.31139,1697.68861,0.36758,2.08866,4.92597,0.82403,1.32748,1.02037,5.62226,0.09203,-0.03785,0.1708,4.82713,0.92287,0.53934,1.37947,4.63411,-0.88411,-0.44366,-0.79461,5.10082,0.63831,0.68934,1.37495,0.72899,-0.60551,1.13291,2.24218,1.24543,0.19566,1.55523,-0.74539,1.57631,-0.94148,0.04346,0.02891,-1.57543,1.57543,0.95911,1.17331,NA,NA,NA,0.72899,-0.60551,1.13291,2.24218,1.24543,0.19566,1.55523,-0.74539,1.57631,-0.94148,0.04346,0.02891,1.57543,1.17331,NA,0.72899,-0.60551,1.13291,2.24218,1.24543,0.19566,1.55523,-0.74539,1.57631,-0.94148,0.04346,0.02891,1.57543,1.17331,NA,0.88811,-1.72009,NA,NA,NA,NA,NA,NA,NA,NA,NA,NA,NA,0.0072,0.05571,0.01245,0.00191,0.01942,0.09348,0.01245,0.01245,0.01245,0.00191,0.01942,0.09348,0.02,0.05,0.53,-0.84,0.01,0.01
"41","102","alexandra","24m2h",2024,6,8,20,57,4,2533,102,21,"female",26,"tpl","inhb",0,0,2163,2163,2163,"elephant4","",1,"","","","","","",1,2163,NA,NA,"inhb",0,"","","","",NA,NA,NA,NA,NA,NA,NA,NA,NA,NA,NA,NA,NA,NA,NA,NA,1,2,20.33,6,47,53,2,2,0.9583,0.9583,0.9583,0.375,0.375,0.375,0.58,2274,2274.5,2274.5,3812,3812,3812,-1537.5,5.75,5.75,5.71428571,5.71428571,5.75,5.75,3.75,3.75,5.73913044,5.73913044,999,4196,3674,-522,0.72899,-0.60551,1.13291,2.24218,1.24543,0.19566,1.55523,-0.74539,1.57631,12.83846,0.17005,0.72899,-0.60551,1.13291,2.24218,1.24543,0.19566,1.55523,-0.74539,1.57631,-0.94148,0.04346,0.02891,-1.57543,1.57543,0.95911,1.17331,0.88435,0.07395,-0.06671,0.7838,0.45957,-0.08457,-0.61594,-0.3073,1800.15843,474.34157,0.70727,0.95208,2114.31139,1697.68861,0.36758,2.08866,4.92597,0.82403,1.32748,1.02037,5.62226,0.09203,-0.03785,0.1708,4.82713,0.92287,0.53934,1.37947,4.63411,-0.88411,-0.44366,-0.79461,5.10082,0.63831,0.68934,1.37495,0.72899,-0.60551,1.13291,2.24218,1.24543,0.19566,1.55523,-0.74539,1.57631,-0.94148,0.04346,0.02891,-1.57543,1.57543,0.95911,1.17331,NA,NA,NA,0.72899,-0.60551,1.13291,2.24218,1.24543,0.19566,1.55523,-0.74539,1.57631,-0.94148,0.04346,0.02891,1.57543,1.17331,NA,0.72899,-0.60551,1.13291,2.24218,1.24543,0.19566,1.55523,-0.74539,1.57631,-0.94148,0.04346,0.02891,1.57543,1.17331,NA,0.88811,-1.72009,NA,NA,NA,NA,NA,NA,NA,NA,NA,NA,NA,0.0072,0.05571,0.01245,0.00191,0.01942,0.09348,0.01245,0.01245,0.01245,0.00191,0.01942,0.09348,0.02,0.05,0.53,-0.84,0.01,0.01
"42","102","alexandra","24m2h",2024,6,8,20,54,58,2533,102,21,"female",11,"tpl","prpt",1,0,1769,2078,2078,"owl","",1,"","","","","","",1,2078,NA,2078,"prpt",1,"1","","","",NA,NA,NA,NA,NA,NA,NA,NA,NA,NA,NA,NA,NA,NA,NA,NA,1,2,20.33,6,47,53,2,2,0.9583,0.9583,0.9583,0.375,0.375,0.375,0.58,2274,2274.5,2274.5,3812,3812,3812,-1537.5,5.75,5.75,5.71428571,5.71428571,5.75,5.75,3.75,3.75,5.73913044,5.73913044,999,4196,3674,-522,0.72899,-0.60551,1.13291,2.24218,1.24543,0.19566,1.55523,-0.74539,1.57631,12.83846,0.17005,0.72899,-0.60551,1.13291,2.24218,1.24543,0.19566,1.55523,-0.74539,1.57631,-0.94148,0.04346,0.02891,-1.57543,1.57543,0.95911,1.17331,0.88435,0.07395,-0.06671,0.7838,0.45957,-0.08457,-0.61594,-0.3073,1800.15843,474.34157,0.70727,0.95208,2114.31139,1697.68861,0.36758,2.08866,4.92597,0.82403,1.32748,1.02037,5.62226,0.09203,-0.03785,0.1708,4.82713,0.92287,0.53934,1.37947,4.63411,-0.88411,-0.44366,-0.79461,5.10082,0.63831,0.68934,1.37495,0.72899,-0.60551,1.13291,2.24218,1.24543,0.19566,1.55523,-0.74539,1.57631,-0.94148,0.04346,0.02891,-1.57543,1.57543,0.95911,1.17331,NA,NA,NA,0.72899,-0.60551,1.13291,2.24218,1.24543,0.19566,1.55523,-0.74539,1.57631,-0.94148,0.04346,0.02891,1.57543,1.17331,NA,0.72899,-0.60551,1.13291,2.24218,1.24543,0.19566,1.55523,-0.74539,1.57631,-0.94148,0.04346,0.02891,1.57543,1.17331,NA,0.88811,-1.72009,NA,NA,NA,NA,NA,NA,NA,NA,NA,NA,NA,0.0072,0.05571,0.01245,0.00191,0.01942,0.09348,0.01245,0.01245,0.01245,0.00191,0.01942,0.09348,0.02,0.05,0.53,-0.84,0.01,0.01
"43","102","alexandra","24m2h",2024,6,8,20,56,29,2533,102,21,"female",21,"tpl","prpt",0,0,2234,2234,2234,"apple","",1,"","","","","","",1,2234,NA,NA,"prpt",0,"","","","",NA,NA,NA,NA,NA,NA,NA,NA,NA,NA,NA,NA,NA,NA,NA,NA,1,2,20.33,6,47,53,2,2,0.9583,0.9583,0.9583,0.375,0.375,0.375,0.58,2274,2274.5,2274.5,3812,3812,3812,-1537.5,5.75,5.75,5.71428571,5.71428571,5.75,5.75,3.75,3.75,5.73913044,5.73913044,999,4196,3674,-522,0.72899,-0.60551,1.13291,2.24218,1.24543,0.19566,1.55523,-0.74539,1.57631,12.83846,0.17005,0.72899,-0.60551,1.13291,2.24218,1.24543,0.19566,1.55523,-0.74539,1.57631,-0.94148,0.04346,0.02891,-1.57543,1.57543,0.95911,1.17331,0.88435,0.07395,-0.06671,0.7838,0.45957,-0.08457,-0.61594,-0.3073,1800.15843,474.34157,0.70727,0.95208,2114.31139,1697.68861,0.36758,2.08866,4.92597,0.82403,1.32748,1.02037,5.62226,0.09203,-0.03785,0.1708,4.82713,0.92287,0.53934,1.37947,4.63411,-0.88411,-0.44366,-0.79461,5.10082,0.63831,0.68934,1.37495,0.72899,-0.60551,1.13291,2.24218,1.24543,0.19566,1.55523,-0.74539,1.57631,-0.94148,0.04346,0.02891,-1.57543,1.57543,0.95911,1.17331,NA,NA,NA,0.72899,-0.60551,1.13291,2.24218,1.24543,0.19566,1.55523,-0.74539,1.57631,-0.94148,0.04346,0.02891,1.57543,1.17331,NA,0.72899,-0.60551,1.13291,2.24218,1.24543,0.19566,1.55523,-0.74539,1.57631,-0.94148,0.04346,0.02891,1.57543,1.17331,NA,0.88811,-1.72009,NA,NA,NA,NA,NA,NA,NA,NA,NA,NA,NA,0.0072,0.05571,0.01245,0.00191,0.01942,0.09348,0.01245,0.01245,0.01245,0.00191,0.01942,0.09348,0.02,0.05,0.53,-0.84,0.01,0.01
"44","102","alexandra","24m2h",2024,6,8,20,54,51,2533,102,21,"female",10,"tpl","prpt",1,0,2815,2815,2815,"bus","",1,"","","","","","",1,2815,NA,2815,"prpt",1,"1","","","",NA,NA,NA,NA,NA,NA,NA,NA,NA,NA,NA,NA,NA,NA,NA,NA,1,2,20.33,6,47,53,2,2,0.9583,0.9583,0.9583,0.375,0.375,0.375,0.58,2274,2274.5,2274.5,3812,3812,3812,-1537.5,5.75,5.75,5.71428571,5.71428571,5.75,5.75,3.75,3.75,5.73913044,5.73913044,999,4196,3674,-522,0.72899,-0.60551,1.13291,2.24218,1.24543,0.19566,1.55523,-0.74539,1.57631,12.83846,0.17005,0.72899,-0.60551,1.13291,2.24218,1.24543,0.19566,1.55523,-0.74539,1.57631,-0.94148,0.04346,0.02891,-1.57543,1.57543,0.95911,1.17331,0.88435,0.07395,-0.06671,0.7838,0.45957,-0.08457,-0.61594,-0.3073,1800.15843,474.34157,0.70727,0.95208,2114.31139,1697.68861,0.36758,2.08866,4.92597,0.82403,1.32748,1.02037,5.62226,0.09203,-0.03785,0.1708,4.82713,0.92287,0.53934,1.37947,4.63411,-0.88411,-0.44366,-0.79461,5.10082,0.63831,0.68934,1.37495,0.72899,-0.60551,1.13291,2.24218,1.24543,0.19566,1.55523,-0.74539,1.57631,-0.94148,0.04346,0.02891,-1.57543,1.57543,0.95911,1.17331,NA,NA,NA,0.72899,-0.60551,1.13291,2.24218,1.24543,0.19566,1.55523,-0.74539,1.57631,-0.94148,0.04346,0.02891,1.57543,1.17331,NA,0.72899,-0.60551,1.13291,2.24218,1.24543,0.19566,1.55523,-0.74539,1.57631,-0.94148,0.04346,0.02891,1.57543,1.17331,NA,0.88811,-1.72009,NA,NA,NA,NA,NA,NA,NA,NA,NA,NA,NA,0.0072,0.05571,0.01245,0.00191,0.01942,0.09348,0.01245,0.01245,0.01245,0.00191,0.01942,0.09348,0.02,0.05,0.53,-0.84,0.01,0.01
"45","102","alexandra","24m2h",2024,6,8,20,56,37,2533,102,21,"female",22,"tpl","prpt",1,0,1211,1211,1211,"elephant4","",1,"","","","","","",1,1211,NA,1211,"prpt",1,"1","","","",NA,NA,NA,NA,NA,NA,NA,NA,NA,NA,NA,NA,NA,NA,NA,NA,1,2,20.33,6,47,53,2,2,0.9583,0.9583,0.9583,0.375,0.375,0.375,0.58,2274,2274.5,2274.5,3812,3812,3812,-1537.5,5.75,5.75,5.71428571,5.71428571,5.75,5.75,3.75,3.75,5.73913044,5.73913044,999,4196,3674,-522,0.72899,-0.60551,1.13291,2.24218,1.24543,0.19566,1.55523,-0.74539,1.57631,12.83846,0.17005,0.72899,-0.60551,1.13291,2.24218,1.24543,0.19566,1.55523,-0.74539,1.57631,-0.94148,0.04346,0.02891,-1.57543,1.57543,0.95911,1.17331,0.88435,0.07395,-0.06671,0.7838,0.45957,-0.08457,-0.61594,-0.3073,1800.15843,474.34157,0.70727,0.95208,2114.31139,1697.68861,0.36758,2.08866,4.92597,0.82403,1.32748,1.02037,5.62226,0.09203,-0.03785,0.1708,4.82713,0.92287,0.53934,1.37947,4.63411,-0.88411,-0.44366,-0.79461,5.10082,0.63831,0.68934,1.37495,0.72899,-0.60551,1.13291,2.24218,1.24543,0.19566,1.55523,-0.74539,1.57631,-0.94148,0.04346,0.02891,-1.57543,1.57543,0.95911,1.17331,NA,NA,NA,0.72899,-0.60551,1.13291,2.24218,1.24543,0.19566,1.55523,-0.74539,1.57631,-0.94148,0.04346,0.02891,1.57543,1.17331,NA,0.72899,-0.60551,1.13291,2.24218,1.24543,0.19566,1.55523,-0.74539,1.57631,-0.94148,0.04346,0.02891,1.57543,1.17331,NA,0.88811,-1.72009,NA,NA,NA,NA,NA,NA,NA,NA,NA,NA,NA,0.0072,0.05571,0.01245,0.00191,0.01942,0.09348,0.01245,0.01245,0.01245,0.00191,0.01942,0.09348,0.02,0.05,0.53,-0.84,0.01,0.01
"46","102","alexandra","24m2h",2024,6,8,20,52,58,2533,102,21,"female",1,"prl","",1,0,13762,13763,13763,"owl","left ",1,"none","none","none","none","none","none",0,13763,NA,NA,"",1,"","","AP","none",NA,NA,NA,NA,NA,NA,NA,NA,NA,NA,NA,NA,NA,NA,NA,NA,1,2,20.33,6,47,53,2,2,0.9583,0.9583,0.9583,0.375,0.375,0.375,0.58,2274,2274.5,2274.5,3812,3812,3812,-1537.5,5.75,5.75,5.71428571,5.71428571,5.75,5.75,3.75,3.75,5.73913044,5.73913044,999,4196,3674,-522,0.72899,-0.60551,1.13291,2.24218,1.24543,0.19566,1.55523,-0.74539,1.57631,12.83846,0.17005,0.72899,-0.60551,1.13291,2.24218,1.24543,0.19566,1.55523,-0.74539,1.57631,-0.94148,0.04346,0.02891,-1.57543,1.57543,0.95911,1.17331,0.88435,0.07395,-0.06671,0.7838,0.45957,-0.08457,-0.61594,-0.3073,1800.15843,474.34157,0.70727,0.95208,2114.31139,1697.68861,0.36758,2.08866,4.92597,0.82403,1.32748,1.02037,5.62226,0.09203,-0.03785,0.1708,4.82713,0.92287,0.53934,1.37947,4.63411,-0.88411,-0.44366,-0.79461,5.10082,0.63831,0.68934,1.37495,0.72899,-0.60551,1.13291,2.24218,1.24543,0.19566,1.55523,-0.74539,1.57631,-0.94148,0.04346,0.02891,-1.57543,1.57543,0.95911,1.17331,NA,NA,NA,0.72899,-0.60551,1.13291,2.24218,1.24543,0.19566,1.55523,-0.74539,1.57631,-0.94148,0.04346,0.02891,1.57543,1.17331,NA,0.72899,-0.60551,1.13291,2.24218,1.24543,0.19566,1.55523,-0.74539,1.57631,-0.94148,0.04346,0.02891,1.57543,1.17331,NA,0.88811,-1.72009,NA,NA,NA,NA,NA,NA,NA,NA,NA,NA,NA,0.0072,0.05571,0.01245,0.00191,0.01942,0.09348,0.01245,0.01245,0.01245,0.00191,0.01942,0.09348,0.02,0.05,0.53,-0.84,0.01,0.01
"47","102","alexandra","24m2h",2024,6,8,20,56,55,2533,102,21,"female",25,"tpl","prpt",1,0,4836,4836,4836,"apple","",1,"","","","","","",1,4836,NA,4836,"prpt",1,"1","","","",NA,NA,NA,NA,NA,NA,NA,NA,NA,NA,NA,NA,NA,NA,NA,NA,1,2,20.33,6,47,53,2,2,0.9583,0.9583,0.9583,0.375,0.375,0.375,0.58,2274,2274.5,2274.5,3812,3812,3812,-1537.5,5.75,5.75,5.71428571,5.71428571,5.75,5.75,3.75,3.75,5.73913044,5.73913044,999,4196,3674,-522,0.72899,-0.60551,1.13291,2.24218,1.24543,0.19566,1.55523,-0.74539,1.57631,12.83846,0.17005,0.72899,-0.60551,1.13291,2.24218,1.24543,0.19566,1.55523,-0.74539,1.57631,-0.94148,0.04346,0.02891,-1.57543,1.57543,0.95911,1.17331,0.88435,0.07395,-0.06671,0.7838,0.45957,-0.08457,-0.61594,-0.3073,1800.15843,474.34157,0.70727,0.95208,2114.31139,1697.68861,0.36758,2.08866,4.92597,0.82403,1.32748,1.02037,5.62226,0.09203,-0.03785,0.1708,4.82713,0.92287,0.53934,1.37947,4.63411,-0.88411,-0.44366,-0.79461,5.10082,0.63831,0.68934,1.37495,0.72899,-0.60551,1.13291,2.24218,1.24543,0.19566,1.55523,-0.74539,1.57631,-0.94148,0.04346,0.02891,-1.57543,1.57543,0.95911,1.17331,NA,NA,NA,0.72899,-0.60551,1.13291,2.24218,1.24543,0.19566,1.55523,-0.74539,1.57631,-0.94148,0.04346,0.02891,1.57543,1.17331,NA,0.72899,-0.60551,1.13291,2.24218,1.24543,0.19566,1.55523,-0.74539,1.57631,-0.94148,0.04346,0.02891,1.57543,1.17331,NA,0.88811,-1.72009,NA,NA,NA,NA,NA,NA,NA,NA,NA,NA,NA,0.0072,0.05571,0.01245,0.00191,0.01942,0.09348,0.01245,0.01245,0.01245,0.00191,0.01942,0.09348,0.02,0.05,0.53,-0.84,0.01,0.01
"48","102","alexandra","24m2h",2024,6,8,20,57,57,2533,102,21,"female",32,"tpl","prpt",1,0,1996,1996,1996,"bus","",1,"","","","","","",1,1996,NA,1996,"prpt",1,"1","","","",NA,NA,NA,NA,NA,NA,NA,NA,NA,NA,NA,NA,NA,NA,NA,NA,1,2,20.33,6,47,53,2,2,0.9583,0.9583,0.9583,0.375,0.375,0.375,0.58,2274,2274.5,2274.5,3812,3812,3812,-1537.5,5.75,5.75,5.71428571,5.71428571,5.75,5.75,3.75,3.75,5.73913044,5.73913044,999,4196,3674,-522,0.72899,-0.60551,1.13291,2.24218,1.24543,0.19566,1.55523,-0.74539,1.57631,12.83846,0.17005,0.72899,-0.60551,1.13291,2.24218,1.24543,0.19566,1.55523,-0.74539,1.57631,-0.94148,0.04346,0.02891,-1.57543,1.57543,0.95911,1.17331,0.88435,0.07395,-0.06671,0.7838,0.45957,-0.08457,-0.61594,-0.3073,1800.15843,474.34157,0.70727,0.95208,2114.31139,1697.68861,0.36758,2.08866,4.92597,0.82403,1.32748,1.02037,5.62226,0.09203,-0.03785,0.1708,4.82713,0.92287,0.53934,1.37947,4.63411,-0.88411,-0.44366,-0.79461,5.10082,0.63831,0.68934,1.37495,0.72899,-0.60551,1.13291,2.24218,1.24543,0.19566,1.55523,-0.74539,1.57631,-0.94148,0.04346,0.02891,-1.57543,1.57543,0.95911,1.17331,NA,NA,NA,0.72899,-0.60551,1.13291,2.24218,1.24543,0.19566,1.55523,-0.74539,1.57631,-0.94148,0.04346,0.02891,1.57543,1.17331,NA,0.72899,-0.60551,1.13291,2.24218,1.24543,0.19566,1.55523,-0.74539,1.57631,-0.94148,0.04346,0.02891,1.57543,1.17331,NA,0.88811,-1.72009,NA,NA,NA,NA,NA,NA,NA,NA,NA,NA,NA,0.0072,0.05571,0.01245,0.00191,0.01942,0.09348,0.01245,0.01245,0.01245,0.00191,0.01942,0.09348,0.02,0.05,0.53,-0.84,0.01,0.01
"49","102","alexandra","24m2h",2024,6,8,20,56,49,2533,102,21,"female",24,"tpl","prpt",1,0,1507,1507,1507,"bus","",1,"","","","","","",1,1507,NA,1507,"prpt",1,"1","","","",NA,NA,NA,NA,NA,NA,NA,NA,NA,NA,NA,NA,NA,NA,NA,NA,1,2,20.33,6,47,53,2,2,0.9583,0.9583,0.9583,0.375,0.375,0.375,0.58,2274,2274.5,2274.5,3812,3812,3812,-1537.5,5.75,5.75,5.71428571,5.71428571,5.75,5.75,3.75,3.75,5.73913044,5.73913044,999,4196,3674,-522,0.72899,-0.60551,1.13291,2.24218,1.24543,0.19566,1.55523,-0.74539,1.57631,12.83846,0.17005,0.72899,-0.60551,1.13291,2.24218,1.24543,0.19566,1.55523,-0.74539,1.57631,-0.94148,0.04346,0.02891,-1.57543,1.57543,0.95911,1.17331,0.88435,0.07395,-0.06671,0.7838,0.45957,-0.08457,-0.61594,-0.3073,1800.15843,474.34157,0.70727,0.95208,2114.31139,1697.68861,0.36758,2.08866,4.92597,0.82403,1.32748,1.02037,5.62226,0.09203,-0.03785,0.1708,4.82713,0.92287,0.53934,1.37947,4.63411,-0.88411,-0.44366,-0.79461,5.10082,0.63831,0.68934,1.37495,0.72899,-0.60551,1.13291,2.24218,1.24543,0.19566,1.55523,-0.74539,1.57631,-0.94148,0.04346,0.02891,-1.57543,1.57543,0.95911,1.17331,NA,NA,NA,0.72899,-0.60551,1.13291,2.24218,1.24543,0.19566,1.55523,-0.74539,1.57631,-0.94148,0.04346,0.02891,1.57543,1.17331,NA,0.72899,-0.60551,1.13291,2.24218,1.24543,0.19566,1.55523,-0.74539,1.57631,-0.94148,0.04346,0.02891,1.57543,1.17331,NA,0.88811,-1.72009,NA,NA,NA,NA,NA,NA,NA,NA,NA,NA,NA,0.0072,0.05571,0.01245,0.00191,0.01942,0.09348,0.01245,0.01245,0.01245,0.00191,0.01942,0.09348,0.02,0.05,0.53,-0.84,0.01,0.01
"50","102","alexandra","24m2h",2024,6,8,20,54,19,2533,102,21,"female",6,"tpl","inhb",1,0,4195,4196,4196,"apple","",1,"","","","","","",1,4196,NA,NA,"inhb",1,"","1","","",4196,NA,NA,NA,NA,NA,NA,NA,NA,NA,NA,NA,NA,NA,NA,NA,1,2,20.33,6,47,53,2,2,0.9583,0.9583,0.9583,0.375,0.375,0.375,0.58,2274,2274.5,2274.5,3812,3812,3812,-1537.5,5.75,5.75,5.71428571,5.71428571,5.75,5.75,3.75,3.75,5.73913044,5.73913044,999,4196,3674,-522,0.72899,-0.60551,1.13291,2.24218,1.24543,0.19566,1.55523,-0.74539,1.57631,12.83846,0.17005,0.72899,-0.60551,1.13291,2.24218,1.24543,0.19566,1.55523,-0.74539,1.57631,-0.94148,0.04346,0.02891,-1.57543,1.57543,0.95911,1.17331,0.88435,0.07395,-0.06671,0.7838,0.45957,-0.08457,-0.61594,-0.3073,1800.15843,474.34157,0.70727,0.95208,2114.31139,1697.68861,0.36758,2.08866,4.92597,0.82403,1.32748,1.02037,5.62226,0.09203,-0.03785,0.1708,4.82713,0.92287,0.53934,1.37947,4.63411,-0.88411,-0.44366,-0.79461,5.10082,0.63831,0.68934,1.37495,0.72899,-0.60551,1.13291,2.24218,1.24543,0.19566,1.55523,-0.74539,1.57631,-0.94148,0.04346,0.02891,-1.57543,1.57543,0.95911,1.17331,NA,NA,NA,0.72899,-0.60551,1.13291,2.24218,1.24543,0.19566,1.55523,-0.74539,1.57631,-0.94148,0.04346,0.02891,1.57543,1.17331,NA,0.72899,-0.60551,1.13291,2.24218,1.24543,0.19566,1.55523,-0.74539,1.57631,-0.94148,0.04346,0.02891,1.57543,1.17331,NA,0.88811,-1.72009,NA,NA,NA,NA,NA,NA,NA,NA,NA,NA,NA,0.0072,0.05571,0.01245,0.00191,0.01942,0.09348,0.01245,0.01245,0.01245,0.00191,0.01942,0.09348,0.02,0.05,0.53,-0.84,0.01,0.01
"51","102","alexandra","24m2h",2024,6,8,20,56,21,2533,102,21,"female",20,"tpl","inhb",1,0,3536,3536,3536,"flower","",1,"","","","","","",1,3536,NA,NA,"inhb",1,"","1","","",3536,NA,NA,NA,NA,NA,NA,NA,NA,NA,NA,NA,NA,NA,NA,NA,1,2,20.33,6,47,53,2,2,0.9583,0.9583,0.9583,0.375,0.375,0.375,0.58,2274,2274.5,2274.5,3812,3812,3812,-1537.5,5.75,5.75,5.71428571,5.71428571,5.75,5.75,3.75,3.75,5.73913044,5.73913044,999,4196,3674,-522,0.72899,-0.60551,1.13291,2.24218,1.24543,0.19566,1.55523,-0.74539,1.57631,12.83846,0.17005,0.72899,-0.60551,1.13291,2.24218,1.24543,0.19566,1.55523,-0.74539,1.57631,-0.94148,0.04346,0.02891,-1.57543,1.57543,0.95911,1.17331,0.88435,0.07395,-0.06671,0.7838,0.45957,-0.08457,-0.61594,-0.3073,1800.15843,474.34157,0.70727,0.95208,2114.31139,1697.68861,0.36758,2.08866,4.92597,0.82403,1.32748,1.02037,5.62226,0.09203,-0.03785,0.1708,4.82713,0.92287,0.53934,1.37947,4.63411,-0.88411,-0.44366,-0.79461,5.10082,0.63831,0.68934,1.37495,0.72899,-0.60551,1.13291,2.24218,1.24543,0.19566,1.55523,-0.74539,1.57631,-0.94148,0.04346,0.02891,-1.57543,1.57543,0.95911,1.17331,NA,NA,NA,0.72899,-0.60551,1.13291,2.24218,1.24543,0.19566,1.55523,-0.74539,1.57631,-0.94148,0.04346,0.02891,1.57543,1.17331,NA,0.72899,-0.60551,1.13291,2.24218,1.24543,0.19566,1.55523,-0.74539,1.57631,-0.94148,0.04346,0.02891,1.57543,1.17331,NA,0.88811,-1.72009,NA,NA,NA,NA,NA,NA,NA,NA,NA,NA,NA,0.0072,0.05571,0.01245,0.00191,0.01942,0.09348,0.01245,0.01245,0.01245,0.00191,0.01942,0.09348,0.02,0.05,0.53,-0.84,0.01,0.01
"52","102","alexandra","24m2h",2024,6,8,20,54,27,2533,102,21,"female",7,"tpl","prpt",1,0,5619,5619,5619,"apple","",1,"","","","","","",0,5619,NA,NA,"prpt",1,"1","","","",NA,NA,NA,NA,NA,NA,NA,NA,NA,NA,NA,NA,NA,NA,NA,NA,1,2,20.33,6,47,53,2,2,0.9583,0.9583,0.9583,0.375,0.375,0.375,0.58,2274,2274.5,2274.5,3812,3812,3812,-1537.5,5.75,5.75,5.71428571,5.71428571,5.75,5.75,3.75,3.75,5.73913044,5.73913044,999,4196,3674,-522,0.72899,-0.60551,1.13291,2.24218,1.24543,0.19566,1.55523,-0.74539,1.57631,12.83846,0.17005,0.72899,-0.60551,1.13291,2.24218,1.24543,0.19566,1.55523,-0.74539,1.57631,-0.94148,0.04346,0.02891,-1.57543,1.57543,0.95911,1.17331,0.88435,0.07395,-0.06671,0.7838,0.45957,-0.08457,-0.61594,-0.3073,1800.15843,474.34157,0.70727,0.95208,2114.31139,1697.68861,0.36758,2.08866,4.92597,0.82403,1.32748,1.02037,5.62226,0.09203,-0.03785,0.1708,4.82713,0.92287,0.53934,1.37947,4.63411,-0.88411,-0.44366,-0.79461,5.10082,0.63831,0.68934,1.37495,0.72899,-0.60551,1.13291,2.24218,1.24543,0.19566,1.55523,-0.74539,1.57631,-0.94148,0.04346,0.02891,-1.57543,1.57543,0.95911,1.17331,NA,NA,NA,0.72899,-0.60551,1.13291,2.24218,1.24543,0.19566,1.55523,-0.74539,1.57631,-0.94148,0.04346,0.02891,1.57543,1.17331,NA,0.72899,-0.60551,1.13291,2.24218,1.24543,0.19566,1.55523,-0.74539,1.57631,-0.94148,0.04346,0.02891,1.57543,1.17331,NA,0.88811,-1.72009,NA,NA,NA,NA,NA,NA,NA,NA,NA,NA,NA,0.0072,0.05571,0.01245,0.00191,0.01942,0.09348,0.01245,0.01245,0.01245,0.00191,0.01942,0.09348,0.02,0.05,0.53,-0.84,0.01,0.01
"53","102","alexandra","24m2h",2024,6,8,20,54,10,2533,102,21,"female",5,"tpl","prpt",1,0,4970,4970,4970,"flower","",1,"","","","","","",1,4970,NA,4970,"prpt",1,"1","","","",NA,NA,NA,NA,NA,NA,NA,NA,NA,NA,NA,NA,NA,NA,NA,NA,1,2,20.33,6,47,53,2,2,0.9583,0.9583,0.9583,0.375,0.375,0.375,0.58,2274,2274.5,2274.5,3812,3812,3812,-1537.5,5.75,5.75,5.71428571,5.71428571,5.75,5.75,3.75,3.75,5.73913044,5.73913044,999,4196,3674,-522,0.72899,-0.60551,1.13291,2.24218,1.24543,0.19566,1.55523,-0.74539,1.57631,12.83846,0.17005,0.72899,-0.60551,1.13291,2.24218,1.24543,0.19566,1.55523,-0.74539,1.57631,-0.94148,0.04346,0.02891,-1.57543,1.57543,0.95911,1.17331,0.88435,0.07395,-0.06671,0.7838,0.45957,-0.08457,-0.61594,-0.3073,1800.15843,474.34157,0.70727,0.95208,2114.31139,1697.68861,0.36758,2.08866,4.92597,0.82403,1.32748,1.02037,5.62226,0.09203,-0.03785,0.1708,4.82713,0.92287,0.53934,1.37947,4.63411,-0.88411,-0.44366,-0.79461,5.10082,0.63831,0.68934,1.37495,0.72899,-0.60551,1.13291,2.24218,1.24543,0.19566,1.55523,-0.74539,1.57631,-0.94148,0.04346,0.02891,-1.57543,1.57543,0.95911,1.17331,NA,NA,NA,0.72899,-0.60551,1.13291,2.24218,1.24543,0.19566,1.55523,-0.74539,1.57631,-0.94148,0.04346,0.02891,1.57543,1.17331,NA,0.72899,-0.60551,1.13291,2.24218,1.24543,0.19566,1.55523,-0.74539,1.57631,-0.94148,0.04346,0.02891,1.57543,1.17331,NA,0.88811,-1.72009,NA,NA,NA,NA,NA,NA,NA,NA,NA,NA,NA,0.0072,0.05571,0.01245,0.00191,0.01942,0.09348,0.01245,0.01245,0.01245,0.00191,0.01942,0.09348,0.02,0.05,0.53,-0.84,0.01,0.01
"54","102","alexandra","24m2h",2024,6,8,20,54,44,2533,102,21,"female",9,"tpl","prpt",1,0,2471,2471,2471,"elephant","",1,"","","","","","",1,2471,NA,2471,"prpt",1,"1","","","",NA,NA,NA,NA,NA,NA,NA,NA,NA,NA,NA,NA,NA,NA,NA,NA,1,2,20.33,6,47,53,2,2,0.9583,0.9583,0.9583,0.375,0.375,0.375,0.58,2274,2274.5,2274.5,3812,3812,3812,-1537.5,5.75,5.75,5.71428571,5.71428571,5.75,5.75,3.75,3.75,5.73913044,5.73913044,999,4196,3674,-522,0.72899,-0.60551,1.13291,2.24218,1.24543,0.19566,1.55523,-0.74539,1.57631,12.83846,0.17005,0.72899,-0.60551,1.13291,2.24218,1.24543,0.19566,1.55523,-0.74539,1.57631,-0.94148,0.04346,0.02891,-1.57543,1.57543,0.95911,1.17331,0.88435,0.07395,-0.06671,0.7838,0.45957,-0.08457,-0.61594,-0.3073,1800.15843,474.34157,0.70727,0.95208,2114.31139,1697.68861,0.36758,2.08866,4.92597,0.82403,1.32748,1.02037,5.62226,0.09203,-0.03785,0.1708,4.82713,0.92287,0.53934,1.37947,4.63411,-0.88411,-0.44366,-0.79461,5.10082,0.63831,0.68934,1.37495,0.72899,-0.60551,1.13291,2.24218,1.24543,0.19566,1.55523,-0.74539,1.57631,-0.94148,0.04346,0.02891,-1.57543,1.57543,0.95911,1.17331,NA,NA,NA,0.72899,-0.60551,1.13291,2.24218,1.24543,0.19566,1.55523,-0.74539,1.57631,-0.94148,0.04346,0.02891,1.57543,1.17331,NA,0.72899,-0.60551,1.13291,2.24218,1.24543,0.19566,1.55523,-0.74539,1.57631,-0.94148,0.04346,0.02891,1.57543,1.17331,NA,0.88811,-1.72009,NA,NA,NA,NA,NA,NA,NA,NA,NA,NA,NA,0.0072,0.05571,0.01245,0.00191,0.01942,0.09348,0.01245,0.01245,0.01245,0.00191,0.01942,0.09348,0.02,0.05,0.53,-0.84,0.01,0.01
"55","102","alexandra","24m2h",2024,6,8,20,56,7,2533,102,21,"female",19,"tpl","inhb",0,0,6963,7130,7130,"elephant2","",1,"","","","","","",0,7130,NA,NA,"inhb",0,"","","","",NA,NA,NA,NA,NA,NA,NA,NA,NA,NA,NA,NA,NA,NA,NA,NA,1,2,20.33,6,47,53,2,2,0.9583,0.9583,0.9583,0.375,0.375,0.375,0.58,2274,2274.5,2274.5,3812,3812,3812,-1537.5,5.75,5.75,5.71428571,5.71428571,5.75,5.75,3.75,3.75,5.73913044,5.73913044,999,4196,3674,-522,0.72899,-0.60551,1.13291,2.24218,1.24543,0.19566,1.55523,-0.74539,1.57631,12.83846,0.17005,0.72899,-0.60551,1.13291,2.24218,1.24543,0.19566,1.55523,-0.74539,1.57631,-0.94148,0.04346,0.02891,-1.57543,1.57543,0.95911,1.17331,0.88435,0.07395,-0.06671,0.7838,0.45957,-0.08457,-0.61594,-0.3073,1800.15843,474.34157,0.70727,0.95208,2114.31139,1697.68861,0.36758,2.08866,4.92597,0.82403,1.32748,1.02037,5.62226,0.09203,-0.03785,0.1708,4.82713,0.92287,0.53934,1.37947,4.63411,-0.88411,-0.44366,-0.79461,5.10082,0.63831,0.68934,1.37495,0.72899,-0.60551,1.13291,2.24218,1.24543,0.19566,1.55523,-0.74539,1.57631,-0.94148,0.04346,0.02891,-1.57543,1.57543,0.95911,1.17331,NA,NA,NA,0.72899,-0.60551,1.13291,2.24218,1.24543,0.19566,1.55523,-0.74539,1.57631,-0.94148,0.04346,0.02891,1.57543,1.17331,NA,0.72899,-0.60551,1.13291,2.24218,1.24543,0.19566,1.55523,-0.74539,1.57631,-0.94148,0.04346,0.02891,1.57543,1.17331,NA,0.88811,-1.72009,NA,NA,NA,NA,NA,NA,NA,NA,NA,NA,NA,0.0072,0.05571,0.01245,0.00191,0.01942,0.09348,0.01245,0.01245,0.01245,0.00191,0.01942,0.09348,0.02,0.05,0.53,-0.84,0.01,0.01
"56","102","alexandra","24m2h",2024,6,8,20,54,37,2533,102,21,"female",8,"tpl","prpt",1,0,2484,2484,2484,"elephant","",1,"","","","","","",1,2484,NA,2484,"prpt",1,"1","","","",NA,NA,NA,NA,NA,NA,NA,NA,NA,NA,NA,NA,NA,NA,NA,NA,1,2,20.33,6,47,53,2,2,0.9583,0.9583,0.9583,0.375,0.375,0.375,0.58,2274,2274.5,2274.5,3812,3812,3812,-1537.5,5.75,5.75,5.71428571,5.71428571,5.75,5.75,3.75,3.75,5.73913044,5.73913044,999,4196,3674,-522,0.72899,-0.60551,1.13291,2.24218,1.24543,0.19566,1.55523,-0.74539,1.57631,12.83846,0.17005,0.72899,-0.60551,1.13291,2.24218,1.24543,0.19566,1.55523,-0.74539,1.57631,-0.94148,0.04346,0.02891,-1.57543,1.57543,0.95911,1.17331,0.88435,0.07395,-0.06671,0.7838,0.45957,-0.08457,-0.61594,-0.3073,1800.15843,474.34157,0.70727,0.95208,2114.31139,1697.68861,0.36758,2.08866,4.92597,0.82403,1.32748,1.02037,5.62226,0.09203,-0.03785,0.1708,4.82713,0.92287,0.53934,1.37947,4.63411,-0.88411,-0.44366,-0.79461,5.10082,0.63831,0.68934,1.37495,0.72899,-0.60551,1.13291,2.24218,1.24543,0.19566,1.55523,-0.74539,1.57631,-0.94148,0.04346,0.02891,-1.57543,1.57543,0.95911,1.17331,NA,NA,NA,0.72899,-0.60551,1.13291,2.24218,1.24543,0.19566,1.55523,-0.74539,1.57631,-0.94148,0.04346,0.02891,1.57543,1.17331,NA,0.72899,-0.60551,1.13291,2.24218,1.24543,0.19566,1.55523,-0.74539,1.57631,-0.94148,0.04346,0.02891,1.57543,1.17331,NA,0.88811,-1.72009,NA,NA,NA,NA,NA,NA,NA,NA,NA,NA,NA,0.0072,0.05571,0.01245,0.00191,0.01942,0.09348,0.01245,0.01245,0.01245,0.00191,0.01942,0.09348,0.02,0.05,0.53,-0.84,0.01,0.01
"57","102","alexandra","24m2h",2024,6,8,20,57,11,2533,102,21,"female",27,"tpl","prpt",1,0,9838,9970,9970,"owl","",1,"","","","","","",0,9970,NA,NA,"prpt",1,"1","","","",NA,NA,NA,NA,NA,NA,NA,NA,NA,NA,NA,NA,NA,NA,NA,NA,1,2,20.33,6,47,53,2,2,0.9583,0.9583,0.9583,0.375,0.375,0.375,0.58,2274,2274.5,2274.5,3812,3812,3812,-1537.5,5.75,5.75,5.71428571,5.71428571,5.75,5.75,3.75,3.75,5.73913044,5.73913044,999,4196,3674,-522,0.72899,-0.60551,1.13291,2.24218,1.24543,0.19566,1.55523,-0.74539,1.57631,12.83846,0.17005,0.72899,-0.60551,1.13291,2.24218,1.24543,0.19566,1.55523,-0.74539,1.57631,-0.94148,0.04346,0.02891,-1.57543,1.57543,0.95911,1.17331,0.88435,0.07395,-0.06671,0.7838,0.45957,-0.08457,-0.61594,-0.3073,1800.15843,474.34157,0.70727,0.95208,2114.31139,1697.68861,0.36758,2.08866,4.92597,0.82403,1.32748,1.02037,5.62226,0.09203,-0.03785,0.1708,4.82713,0.92287,0.53934,1.37947,4.63411,-0.88411,-0.44366,-0.79461,5.10082,0.63831,0.68934,1.37495,0.72899,-0.60551,1.13291,2.24218,1.24543,0.19566,1.55523,-0.74539,1.57631,-0.94148,0.04346,0.02891,-1.57543,1.57543,0.95911,1.17331,NA,NA,NA,0.72899,-0.60551,1.13291,2.24218,1.24543,0.19566,1.55523,-0.74539,1.57631,-0.94148,0.04346,0.02891,1.57543,1.17331,NA,0.72899,-0.60551,1.13291,2.24218,1.24543,0.19566,1.55523,-0.74539,1.57631,-0.94148,0.04346,0.02891,1.57543,1.17331,NA,0.88811,-1.72009,NA,NA,NA,NA,NA,NA,NA,NA,NA,NA,NA,0.0072,0.05571,0.01245,0.00191,0.01942,0.09348,0.01245,0.01245,0.01245,0.00191,0.01942,0.09348,0.02,0.05,0.53,-0.84,0.01,0.01
"58","102","alexandra","24m2h",2024,6,8,20,53,59,2533,102,21,"female",4,"tpl","prpt",1,0,6340,6341,6341,"flower","",1,"","","","","","",0,6341,NA,NA,"prpt",1,"1","","","",NA,NA,NA,NA,NA,NA,NA,NA,NA,NA,NA,NA,NA,NA,NA,NA,1,2,20.33,6,47,53,2,2,0.9583,0.9583,0.9583,0.375,0.375,0.375,0.58,2274,2274.5,2274.5,3812,3812,3812,-1537.5,5.75,5.75,5.71428571,5.71428571,5.75,5.75,3.75,3.75,5.73913044,5.73913044,999,4196,3674,-522,0.72899,-0.60551,1.13291,2.24218,1.24543,0.19566,1.55523,-0.74539,1.57631,12.83846,0.17005,0.72899,-0.60551,1.13291,2.24218,1.24543,0.19566,1.55523,-0.74539,1.57631,-0.94148,0.04346,0.02891,-1.57543,1.57543,0.95911,1.17331,0.88435,0.07395,-0.06671,0.7838,0.45957,-0.08457,-0.61594,-0.3073,1800.15843,474.34157,0.70727,0.95208,2114.31139,1697.68861,0.36758,2.08866,4.92597,0.82403,1.32748,1.02037,5.62226,0.09203,-0.03785,0.1708,4.82713,0.92287,0.53934,1.37947,4.63411,-0.88411,-0.44366,-0.79461,5.10082,0.63831,0.68934,1.37495,0.72899,-0.60551,1.13291,2.24218,1.24543,0.19566,1.55523,-0.74539,1.57631,-0.94148,0.04346,0.02891,-1.57543,1.57543,0.95911,1.17331,NA,NA,NA,0.72899,-0.60551,1.13291,2.24218,1.24543,0.19566,1.55523,-0.74539,1.57631,-0.94148,0.04346,0.02891,1.57543,1.17331,NA,0.72899,-0.60551,1.13291,2.24218,1.24543,0.19566,1.55523,-0.74539,1.57631,-0.94148,0.04346,0.02891,1.57543,1.17331,NA,0.88811,-1.72009,NA,NA,NA,NA,NA,NA,NA,NA,NA,NA,NA,0.0072,0.05571,0.01245,0.00191,0.01942,0.09348,0.01245,0.01245,0.01245,0.00191,0.01942,0.09348,0.02,0.05,0.53,-0.84,0.01,0.01
"59","102","alexandra","24m2h",2024,6,8,20,55,27,2533,102,21,"female",15,"tpl","prpt",1,0,1297,1297,1297,"bus","",1,"","","","","","",1,1297,NA,1297,"prpt",1,"1","","","",NA,NA,NA,NA,NA,NA,NA,NA,NA,NA,NA,NA,NA,NA,NA,NA,1,2,20.33,6,47,53,2,2,0.9583,0.9583,0.9583,0.375,0.375,0.375,0.58,2274,2274.5,2274.5,3812,3812,3812,-1537.5,5.75,5.75,5.71428571,5.71428571,5.75,5.75,3.75,3.75,5.73913044,5.73913044,999,4196,3674,-522,0.72899,-0.60551,1.13291,2.24218,1.24543,0.19566,1.55523,-0.74539,1.57631,12.83846,0.17005,0.72899,-0.60551,1.13291,2.24218,1.24543,0.19566,1.55523,-0.74539,1.57631,-0.94148,0.04346,0.02891,-1.57543,1.57543,0.95911,1.17331,0.88435,0.07395,-0.06671,0.7838,0.45957,-0.08457,-0.61594,-0.3073,1800.15843,474.34157,0.70727,0.95208,2114.31139,1697.68861,0.36758,2.08866,4.92597,0.82403,1.32748,1.02037,5.62226,0.09203,-0.03785,0.1708,4.82713,0.92287,0.53934,1.37947,4.63411,-0.88411,-0.44366,-0.79461,5.10082,0.63831,0.68934,1.37495,0.72899,-0.60551,1.13291,2.24218,1.24543,0.19566,1.55523,-0.74539,1.57631,-0.94148,0.04346,0.02891,-1.57543,1.57543,0.95911,1.17331,NA,NA,NA,0.72899,-0.60551,1.13291,2.24218,1.24543,0.19566,1.55523,-0.74539,1.57631,-0.94148,0.04346,0.02891,1.57543,1.17331,NA,0.72899,-0.60551,1.13291,2.24218,1.24543,0.19566,1.55523,-0.74539,1.57631,-0.94148,0.04346,0.02891,1.57543,1.17331,NA,0.88811,-1.72009,NA,NA,NA,NA,NA,NA,NA,NA,NA,NA,NA,0.0072,0.05571,0.01245,0.00191,0.01942,0.09348,0.01245,0.01245,0.01245,0.00191,0.01942,0.09348,0.02,0.05,0.53,-0.84,0.01,0.01
"60","102","alexandra","24m2h",2024,6,8,20,57,49,2533,102,21,"female",31,"tpl","inhb",1,0,3246,3812,3812,"bus","",1,"","","","","","",1,3812,NA,NA,"inhb",1,"","1","","",3812,NA,NA,NA,NA,NA,NA,NA,NA,NA,NA,NA,NA,NA,NA,NA,1,2,20.33,6,47,53,2,2,0.9583,0.9583,0.9583,0.375,0.375,0.375,0.58,2274,2274.5,2274.5,3812,3812,3812,-1537.5,5.75,5.75,5.71428571,5.71428571,5.75,5.75,3.75,3.75,5.73913044,5.73913044,999,4196,3674,-522,0.72899,-0.60551,1.13291,2.24218,1.24543,0.19566,1.55523,-0.74539,1.57631,12.83846,0.17005,0.72899,-0.60551,1.13291,2.24218,1.24543,0.19566,1.55523,-0.74539,1.57631,-0.94148,0.04346,0.02891,-1.57543,1.57543,0.95911,1.17331,0.88435,0.07395,-0.06671,0.7838,0.45957,-0.08457,-0.61594,-0.3073,1800.15843,474.34157,0.70727,0.95208,2114.31139,1697.68861,0.36758,2.08866,4.92597,0.82403,1.32748,1.02037,5.62226,0.09203,-0.03785,0.1708,4.82713,0.92287,0.53934,1.37947,4.63411,-0.88411,-0.44366,-0.79461,5.10082,0.63831,0.68934,1.37495,0.72899,-0.60551,1.13291,2.24218,1.24543,0.19566,1.55523,-0.74539,1.57631,-0.94148,0.04346,0.02891,-1.57543,1.57543,0.95911,1.17331,NA,NA,NA,0.72899,-0.60551,1.13291,2.24218,1.24543,0.19566,1.55523,-0.74539,1.57631,-0.94148,0.04346,0.02891,1.57543,1.17331,NA,0.72899,-0.60551,1.13291,2.24218,1.24543,0.19566,1.55523,-0.74539,1.57631,-0.94148,0.04346,0.02891,1.57543,1.17331,NA,0.88811,-1.72009,NA,NA,NA,NA,NA,NA,NA,NA,NA,NA,NA,0.0072,0.05571,0.01245,0.00191,0.01942,0.09348,0.01245,0.01245,0.01245,0.00191,0.01942,0.09348,0.02,0.05,0.53,-0.84,0.01,0.01
"61","102","alexandra","24m2h",2024,6,8,20,57,38,2533,102,21,"female",30,"tpl","inhb",0,0,4683,4684,4684,"elephant2","",1,"","","","","","",1,4684,NA,NA,"inhb",0,"","","","",NA,NA,NA,NA,NA,NA,NA,NA,NA,NA,NA,NA,NA,NA,NA,NA,1,2,20.33,6,47,53,2,2,0.9583,0.9583,0.9583,0.375,0.375,0.375,0.58,2274,2274.5,2274.5,3812,3812,3812,-1537.5,5.75,5.75,5.71428571,5.71428571,5.75,5.75,3.75,3.75,5.73913044,5.73913044,999,4196,3674,-522,0.72899,-0.60551,1.13291,2.24218,1.24543,0.19566,1.55523,-0.74539,1.57631,12.83846,0.17005,0.72899,-0.60551,1.13291,2.24218,1.24543,0.19566,1.55523,-0.74539,1.57631,-0.94148,0.04346,0.02891,-1.57543,1.57543,0.95911,1.17331,0.88435,0.07395,-0.06671,0.7838,0.45957,-0.08457,-0.61594,-0.3073,1800.15843,474.34157,0.70727,0.95208,2114.31139,1697.68861,0.36758,2.08866,4.92597,0.82403,1.32748,1.02037,5.62226,0.09203,-0.03785,0.1708,4.82713,0.92287,0.53934,1.37947,4.63411,-0.88411,-0.44366,-0.79461,5.10082,0.63831,0.68934,1.37495,0.72899,-0.60551,1.13291,2.24218,1.24543,0.19566,1.55523,-0.74539,1.57631,-0.94148,0.04346,0.02891,-1.57543,1.57543,0.95911,1.17331,NA,NA,NA,0.72899,-0.60551,1.13291,2.24218,1.24543,0.19566,1.55523,-0.74539,1.57631,-0.94148,0.04346,0.02891,1.57543,1.17331,NA,0.72899,-0.60551,1.13291,2.24218,1.24543,0.19566,1.55523,-0.74539,1.57631,-0.94148,0.04346,0.02891,1.57543,1.17331,NA,0.88811,-1.72009,NA,NA,NA,NA,NA,NA,NA,NA,NA,NA,NA,0.0072,0.05571,0.01245,0.00191,0.01942,0.09348,0.01245,0.01245,0.01245,0.00191,0.01942,0.09348,0.02,0.05,0.53,-0.84,0.01,0.01
"62","102","alexandra","24m2h",2024,6,8,20,57,32,2533,102,21,"female",29,"tpl","prpt",1,0,1036,1036,1036,"elephant2","",1,"","","","","","",1,1036,NA,1036,"prpt",1,"1","","","",NA,NA,NA,NA,NA,NA,NA,NA,NA,NA,NA,NA,NA,NA,NA,NA,1,2,20.33,6,47,53,2,2,0.9583,0.9583,0.9583,0.375,0.375,0.375,0.58,2274,2274.5,2274.5,3812,3812,3812,-1537.5,5.75,5.75,5.71428571,5.71428571,5.75,5.75,3.75,3.75,5.73913044,5.73913044,999,4196,3674,-522,0.72899,-0.60551,1.13291,2.24218,1.24543,0.19566,1.55523,-0.74539,1.57631,12.83846,0.17005,0.72899,-0.60551,1.13291,2.24218,1.24543,0.19566,1.55523,-0.74539,1.57631,-0.94148,0.04346,0.02891,-1.57543,1.57543,0.95911,1.17331,0.88435,0.07395,-0.06671,0.7838,0.45957,-0.08457,-0.61594,-0.3073,1800.15843,474.34157,0.70727,0.95208,2114.31139,1697.68861,0.36758,2.08866,4.92597,0.82403,1.32748,1.02037,5.62226,0.09203,-0.03785,0.1708,4.82713,0.92287,0.53934,1.37947,4.63411,-0.88411,-0.44366,-0.79461,5.10082,0.63831,0.68934,1.37495,0.72899,-0.60551,1.13291,2.24218,1.24543,0.19566,1.55523,-0.74539,1.57631,-0.94148,0.04346,0.02891,-1.57543,1.57543,0.95911,1.17331,NA,NA,NA,0.72899,-0.60551,1.13291,2.24218,1.24543,0.19566,1.55523,-0.74539,1.57631,-0.94148,0.04346,0.02891,1.57543,1.17331,NA,0.72899,-0.60551,1.13291,2.24218,1.24543,0.19566,1.55523,-0.74539,1.57631,-0.94148,0.04346,0.02891,1.57543,1.17331,NA,0.88811,-1.72009,NA,NA,NA,NA,NA,NA,NA,NA,NA,NA,NA,0.0072,0.05571,0.01245,0.00191,0.01942,0.09348,0.01245,0.01245,0.01245,0.00191,0.01942,0.09348,0.02,0.05,0.53,-0.84,0.01,0.01
"63","102","alexandra","24m2h",2024,6,8,20,55,33,2533,102,21,"female",16,"tpl","inhb",0,0,1301,1301,1301,"bus","",1,"","","","","","",1,1301,NA,NA,"inhb",0,"","","","",NA,NA,NA,NA,NA,NA,NA,NA,NA,NA,NA,NA,NA,NA,NA,NA,1,2,20.33,6,47,53,2,2,0.9583,0.9583,0.9583,0.375,0.375,0.375,0.58,2274,2274.5,2274.5,3812,3812,3812,-1537.5,5.75,5.75,5.71428571,5.71428571,5.75,5.75,3.75,3.75,5.73913044,5.73913044,999,4196,3674,-522,0.72899,-0.60551,1.13291,2.24218,1.24543,0.19566,1.55523,-0.74539,1.57631,12.83846,0.17005,0.72899,-0.60551,1.13291,2.24218,1.24543,0.19566,1.55523,-0.74539,1.57631,-0.94148,0.04346,0.02891,-1.57543,1.57543,0.95911,1.17331,0.88435,0.07395,-0.06671,0.7838,0.45957,-0.08457,-0.61594,-0.3073,1800.15843,474.34157,0.70727,0.95208,2114.31139,1697.68861,0.36758,2.08866,4.92597,0.82403,1.32748,1.02037,5.62226,0.09203,-0.03785,0.1708,4.82713,0.92287,0.53934,1.37947,4.63411,-0.88411,-0.44366,-0.79461,5.10082,0.63831,0.68934,1.37495,0.72899,-0.60551,1.13291,2.24218,1.24543,0.19566,1.55523,-0.74539,1.57631,-0.94148,0.04346,0.02891,-1.57543,1.57543,0.95911,1.17331,NA,NA,NA,0.72899,-0.60551,1.13291,2.24218,1.24543,0.19566,1.55523,-0.74539,1.57631,-0.94148,0.04346,0.02891,1.57543,1.17331,NA,0.72899,-0.60551,1.13291,2.24218,1.24543,0.19566,1.55523,-0.74539,1.57631,-0.94148,0.04346,0.02891,1.57543,1.17331,NA,0.88811,-1.72009,NA,NA,NA,NA,NA,NA,NA,NA,NA,NA,NA,0.0072,0.05571,0.01245,0.00191,0.01942,0.09348,0.01245,0.01245,0.01245,0.00191,0.01942,0.09348,0.02,0.05,0.53,-0.84,0.01,0.01
